id	age	sex	task	vdate	timepoint	run	ver	avatar	trial	block	left_pos	left_prob	up_pos	up_prob	right_pos	right_prob	score	rt	picked	picked_prob	picked_step	avoided	avoided_prob	avoided_step	iti_onset	chose_onset	waiting_onset	feedback_onset	prob_picked	pick_dist	optimal_choice	blocktype	picked_unified	avoid_unified
49cb79aaff9677e5cfaba51e6a846602	NA	NA	habit	2021-10-18T23:50:13.955173	1	1	20211018v1-init	shark	1	Lc50Uf100Rc20	c	50	f	100	c	20	true	1517	up	100	2	right	20	1	53302.354	54352.312	55868.918	56835.546	100	far	TRUE	init	first100	first20
49cb79aaff9677e5cfaba51e6a846602	NA	NA	habit	2021-10-18T23:50:13.955173	1	1	20211018v1-init	shark	2	Lc50Uf100Rc20	c	50	f	100	c	20	true	833	up	100	2	right	20	1	57885.99	58935.948	59769.248	60585.882	100	far	TRUE	init	first100	first20
49cb79aaff9677e5cfaba51e6a846602	NA	NA	habit	2021-10-18T23:50:13.955173	1	1	20211018v1-init	shark	3	Lc50Uf100Rc20	c	50	f	100	c	20	true	567	right	20	1	left	50	1	61535.844	62569.136	63135.78	63435.768	20	close	FALSE	init	first20	first50
49cb79aaff9677e5cfaba51e6a846602	NA	NA	habit	2021-10-18T23:50:13.955173	1	1	20211018v1-init	shark	4	Lc50Uf100Rc20	c	50	f	100	c	20	true	483	up	100	2	left	50	1	63735.756	64785.714	65269.028	66202.324	100	far	TRUE	init	first100	first50
49cb79aaff9677e5cfaba51e6a846602	NA	NA	habit	2021-10-18T23:50:13.955173	1	1	20211018v1-init	shark	5	Lc50Uf100Rc20	c	50	f	100	c	20	true	1084	up	100	2	right	20	1	67035.624	68068.916	69152.751	69952.719	100	far	TRUE	init	first100	first20
49cb79aaff9677e5cfaba51e6a846602	NA	NA	habit	2021-10-18T23:50:13.955173	1	1	20211018v1-init	shark	6	Lc50Uf100Rc20	c	50	f	100	c	20	true	600	up	100	2	right	20	1	70952.679	72002.637	72602.613	73385.915	100	far	TRUE	init	first100	first20
49cb79aaff9677e5cfaba51e6a846602	NA	NA	habit	2021-10-18T23:50:13.955173	1	1	20211018v1-init	shark	7	Lc50Uf100Rc20	c	50	f	100	c	20	true	567	up	100	2	left	50	1	74269.213	75285.839	75852.483	76719.115	100	far	TRUE	init	first100	first50
49cb79aaff9677e5cfaba51e6a846602	NA	NA	habit	2021-10-18T23:50:13.955173	1	1	20211018v1-init	shark	8	Lc50Uf100Rc20	c	50	f	100	c	20	false	1184	left	50	1	right	20	1	77635.745	78652.371	79836.288	80052.946	50	close	TRUE	init	first50	first20
49cb79aaff9677e5cfaba51e6a846602	NA	NA	habit	2021-10-18T23:50:13.955173	1	1	20211018v1-init	shark	9	Lc50Uf100Rc20	c	50	f	100	c	20	true	533	right	20	1	up	100	2	80386.266	81402.892	81936.204	82236.192	20	close	FALSE	init	first20	first100
49cb79aaff9677e5cfaba51e6a846602	NA	NA	habit	2021-10-18T23:50:13.955173	1	1	20211018v1-init	shark	10	Lc50Uf100Rc20	c	50	f	100	c	20	false	950	right	20	1	left	50	1	82586.178	83602.804	84552.766	84819.422	20	close	FALSE	init	first20	first50
49cb79aaff9677e5cfaba51e6a846602	NA	NA	habit	2021-10-18T23:50:13.955173	1	1	20211018v1-init	shark	11	Lc50Uf100Rc20	c	50	f	100	c	20	true	1000	left	50	1	right	20	1	85102.744	86169.368	87169.328	87452.65	50	close	TRUE	init	first50	first20
49cb79aaff9677e5cfaba51e6a846602	NA	NA	habit	2021-10-18T23:50:13.955173	1	1	20211018v1-init	shark	12	Lc50Uf100Rc20	c	50	f	100	c	20	true	883	up	100	2	right	20	1	87719.306	88769.264	89652.562	90503.016	100	far	TRUE	init	first100	first20
49cb79aaff9677e5cfaba51e6a846602	NA	NA	habit	2021-10-18T23:50:13.955173	1	1	20211018v1-init	shark	13	Lc50Uf100Rc20	c	50	f	100	c	20	true	1033	right	20	1	left	50	1	91452.978	92469.604	93502.896	93702.888	20	close	FALSE	init	first20	first50
49cb79aaff9677e5cfaba51e6a846602	NA	NA	habit	2021-10-18T23:50:13.955173	1	1	20211018v1-init	shark	14	Lc50Uf100Rc20	c	50	f	100	c	20	true	1100	left	50	1	up	100	2	94002.876	95052.834	96152.79	96436.112	50	close	FALSE	init	first50	first100
49cb79aaff9677e5cfaba51e6a846602	NA	NA	habit	2021-10-18T23:50:13.955173	1	1	20211018v1-init	shark	15	Lc50Uf100Rc20	c	50	f	100	c	20	true	550	up	100	2	left	50	1	96752.766	97802.724	98352.702	99303.232	100	far	TRUE	init	first100	first50
49cb79aaff9677e5cfaba51e6a846602	NA	NA	habit	2021-10-18T23:50:13.955173	1	1	20211018v1-init	shark	16	Lc50Uf100Rc20	c	50	f	100	c	20	true	550	up	100	2	left	50	1	100303.192	101369.816	101919.794	102719.762	100	far	TRUE	init	first100	first50
49cb79aaff9677e5cfaba51e6a846602	NA	NA	habit	2021-10-18T23:50:13.955173	1	1	20211018v1-init	shark	17	Lc50Uf100Rc20	c	50	f	100	c	20	false	1567	right	20	1	left	50	1	103636.392	104669.684	106236.288	106519.61	20	close	FALSE	init	first20	first50
49cb79aaff9677e5cfaba51e6a846602	NA	NA	habit	2021-10-18T23:50:13.955173	1	1	20211018v1-init	shark	18	Lc50Uf100Rc20	c	50	f	100	c	20	true	667	left	50	1	right	20	1	106802.932	107819.558	108486.198	108786.186	50	close	TRUE	init	first50	first20
49cb79aaff9677e5cfaba51e6a846602	NA	NA	habit	2021-10-18T23:50:13.955173	1	1	20211018v1-init	shark	19	Lc50Uf100Rc20	c	50	f	100	c	20	true	1017	up	100	2	right	20	1	109103.408	110153.366	111169.992	112036.624	100	far	TRUE	init	first100	first20
49cb79aaff9677e5cfaba51e6a846602	NA	NA	habit	2021-10-18T23:50:13.955173	1	1	20211018v1-init	shark	20	Lc50Uf100Rc20	c	50	f	100	c	20	false	767	right	20	1	left	50	1	113003.252	114019.878	114786.514	115036.504	20	close	FALSE	init	first20	first50
49cb79aaff9677e5cfaba51e6a846602	NA	NA	habit	2021-10-18T23:50:13.955173	1	1	20211018v1-init	shark	21	Lc50Uf100Rc20	c	50	f	100	c	20	true	867	up	100	2	left	50	1	115286.494	116303.12	117169.752	118069.716	100	far	TRUE	init	first100	first50
49cb79aaff9677e5cfaba51e6a846602	NA	NA	habit	2021-10-18T23:50:13.955173	1	1	20211018v1-init	shark	22	Lc50Uf100Rc20	c	50	f	100	c	20	true	650	up	100	2	right	20	1	119086.869	120136.827	120786.801	121553.437	100	far	TRUE	init	first100	first20
49cb79aaff9677e5cfaba51e6a846602	NA	NA	habit	2021-10-18T23:50:13.955173	1	1	20211018v1-init	shark	23	Lc50Uf100Rc20	c	50	f	100	c	20	true	1017	up	100	2	left	50	1	122553.397	123570.023	124586.649	125319.953	100	far	TRUE	init	first100	first50
49cb79aaff9677e5cfaba51e6a846602	NA	NA	habit	2021-10-18T23:50:13.955173	1	1	20211018v1-init	shark	24	Lc50Uf100Rc20	c	50	f	100	c	20	true	550	up	100	2	left	50	1	126336.579	127353.205	127903.183	128786.481	100	far	TRUE	init	first100	first50
49cb79aaff9677e5cfaba51e6a846602	NA	NA	habit	2021-10-18T23:50:13.955173	1	1	20211018v1-init	shark	25	Lc50Uf100Rc20	c	50	f	100	c	20	false	833	right	50	1	left	20	1	129670.222	130703.514	131536.814	131753.472	20	close	TRUE	init	first20	first50
49cb79aaff9677e5cfaba51e6a846602	NA	NA	habit	2021-10-18T23:50:13.955173	1	1	20211018v1-init	shark	26	Lc20Uf100Rc50	c	20	f	100	c	50	true	583	up	100	2	right	50	1	132036.794	133070.086	133653.396	134603.358	100	far	TRUE	switch	first100	first20
49cb79aaff9677e5cfaba51e6a846602	NA	NA	habit	2021-10-18T23:50:13.955173	1	1	20211018v1-init	shark	27	Lc20Uf100Rc50	c	20	f	100	c	50	true	583	up	100	2	left	20	1	135536.654	136586.612	137169.922	137969.89	100	far	TRUE	switch	first100	first50
49cb79aaff9677e5cfaba51e6a846602	NA	NA	habit	2021-10-18T23:50:13.955173	1	1	20211018v1-init	shark	28	Lc20Uf100Rc50	c	20	f	100	c	50	true	750	right	50	1	left	20	1	138853.188	139903.146	140653.602	140886.926	50	close	TRUE	switch	first20	first50
49cb79aaff9677e5cfaba51e6a846602	NA	NA	habit	2021-10-18T23:50:13.955173	1	1	20211018v1-init	shark	29	Lc20Uf100Rc50	c	20	f	100	c	50	true	617	up	100	2	right	50	1	141203.58	142220.206	142836.848	143636.816	100	far	TRUE	switch	first100	first20
49cb79aaff9677e5cfaba51e6a846602	NA	NA	habit	2021-10-18T23:50:13.955173	1	1	20211018v1-init	shark	30	Lc20Uf100Rc50	c	20	f	100	c	50	false	717	left	20	1	up	100	2	144470.116	145486.742	146203.38	146486.702	20	close	FALSE	switch	first50	first100
49cb79aaff9677e5cfaba51e6a846602	NA	NA	habit	2021-10-18T23:50:13.955173	1	1	20211018v1-init	shark	31	Lc20Uf100Rc50	c	20	f	100	c	50	true	533	up	100	2	right	50	1	146770.024	147819.982	148353.294	149170.496	100	far	TRUE	switch	first100	first20
49cb79aaff9677e5cfaba51e6a846602	NA	NA	habit	2021-10-18T23:50:13.955173	1	1	20211018v1-init	shark	32	Lc20Uf100Rc50	c	20	f	100	c	50	true	683	up	100	2	left	20	1	150270.452	151287.078	151970.384	152703.688	100	far	TRUE	switch	first100	first50
49cb79aaff9677e5cfaba51e6a846602	NA	NA	habit	2021-10-18T23:50:13.955173	1	1	20211018v1-init	shark	33	Lc20Uf100Rc50	c	20	f	100	c	50	false	950	right	50	1	left	20	1	153620.318	154636.944	155586.906	155853.562	50	close	TRUE	switch	first20	first50
49cb79aaff9677e5cfaba51e6a846602	NA	NA	habit	2021-10-18T23:50:13.955173	1	1	20211018v1-init	shark	34	Lc20Uf100Rc50	c	20	f	100	c	50	true	700	left	20	1	right	50	1	156153.55	157186.842	157886.814	158186.802	20	close	FALSE	switch	first50	first20
49cb79aaff9677e5cfaba51e6a846602	NA	NA	habit	2021-10-18T23:50:13.955173	1	1	20211018v1-init	shark	35	Lc20Uf100Rc50	c	20	f	100	c	50	false	584	left	20	1	right	50	1	158536.788	159586.746	160170.505	160470.493	20	close	FALSE	switch	first50	first20
49cb79aaff9677e5cfaba51e6a846602	NA	NA	habit	2021-10-18T23:50:13.955173	1	1	20211018v1-init	shark	36	Lc20Uf100Rc50	c	20	f	100	c	50	false	617	left	20	1	right	50	1	160803.813	161853.771	162470.413	162737.069	20	close	FALSE	switch	first50	first20
49cb79aaff9677e5cfaba51e6a846602	NA	NA	habit	2021-10-18T23:50:13.955173	1	1	20211018v1-init	shark	37	Lc20Uf100Rc50	c	20	f	100	c	50	false	483	right	50	1	left	20	1	163070.389	164103.681	164586.995	164786.987	50	close	TRUE	switch	first20	first50
49cb79aaff9677e5cfaba51e6a846602	NA	NA	habit	2021-10-18T23:50:13.955173	1	1	20211018v1-init	shark	38	Lc20Uf100Rc50	c	20	f	100	c	50	true	500	up	100	2	left	20	1	165103.641	166136.933	166636.913	167470.213	100	far	TRUE	switch	first100	first50
49cb79aaff9677e5cfaba51e6a846602	NA	NA	habit	2021-10-18T23:50:13.955173	1	1	20211018v1-init	shark	39	Lc20Uf100Rc50	c	20	f	100	c	50	true	451	up	100	2	left	20	1	168486.839	169520.131	169970.734	170870.698	100	far	TRUE	switch	first100	first50
49cb79aaff9677e5cfaba51e6a846602	NA	NA	habit	2021-10-18T23:50:13.955173	1	1	20211018v1-init	shark	40	Lc20Uf100Rc50	c	20	f	100	c	50	true	517	up	100	2	left	20	1	171820.66	172870.618	173387.264	174353.892	100	far	TRUE	switch	first100	first50
49cb79aaff9677e5cfaba51e6a846602	NA	NA	habit	2021-10-18T23:50:13.955173	1	1	20211018v1-init	shark	41	Lc20Uf100Rc50	c	20	f	100	c	50	true	433	up	100	2	right	50	1	175220.524	176237.15	176670.466	177537.098	100	far	TRUE	switch	first100	first20
49cb79aaff9677e5cfaba51e6a846602	NA	NA	habit	2021-10-18T23:50:13.955173	1	1	20211018v1-init	shark	42	Lc20Uf100Rc50	c	20	f	100	c	50	true	583	up	100	2	right	50	1	178420.396	179453.688	180036.998	180820.804	100	far	TRUE	switch	first100	first20
49cb79aaff9677e5cfaba51e6a846602	NA	NA	habit	2021-10-18T23:50:13.955173	1	1	20211018v1-init	shark	43	Lc20Uf100Rc50	c	20	f	100	c	50	true	583	up	100	2	left	20	1	181854.096	182870.722	183454.032	184303.998	100	far	TRUE	switch	first100	first50
49cb79aaff9677e5cfaba51e6a846602	NA	NA	habit	2021-10-18T23:50:13.955173	1	1	20211018v1-init	shark	44	Lc20Uf100Rc50	c	20	f	100	c	50	true	517	up	100	2	left	20	1	185203.962	186220.588	186737.234	187653.864	100	far	TRUE	switch	first100	first50
49cb79aaff9677e5cfaba51e6a846602	NA	NA	habit	2021-10-18T23:50:13.955173	1	1	20211018v1-init	shark	45	Lc20Uf100Rc50	c	20	f	100	c	50	true	450	up	100	2	right	50	1	188537.162	189570.454	190020.436	190887.554	100	far	TRUE	switch	first100	first20
49cb79aaff9677e5cfaba51e6a846602	NA	NA	habit	2021-10-18T23:50:13.955173	1	1	20211018v1-init	shark	46	Lc20Uf100Rc50	c	20	f	100	c	50	true	517	up	100	2	right	50	1	191820.85	192837.476	193354.122	194154.09	100	far	TRUE	switch	first100	first20
49cb79aaff9677e5cfaba51e6a846602	NA	NA	habit	2021-10-18T23:50:13.955173	1	1	20211018v1-init	shark	47	Lc20Uf100Rc50	c	20	f	100	c	50	false	750	right	50	1	left	20	1	195070.72	196104.012	196853.982	197103.972	50	close	TRUE	switch	first20	first50
49cb79aaff9677e5cfaba51e6a846602	NA	NA	habit	2021-10-18T23:50:13.955173	1	1	20211018v1-init	shark	48	Lc20Uf100Rc50	c	20	f	100	c	50	true	483	up	100	2	right	50	1	197353.962	198403.92	198887.234	199670.536	100	far	TRUE	switch	first100	first20
49cb79aaff9677e5cfaba51e6a846602	NA	NA	habit	2021-10-18T23:50:13.955173	1	1	20211018v1-init	shark	49	Lc20Uf100Rc50	c	20	f	100	c	50	true	683	left	100	1	right	100	1	200737.771	201771.063	202454.369	202654.361	20	close	TRUE	switch	first50	first20
49cb79aaff9677e5cfaba51e6a846602	NA	NA	habit	2021-10-18T23:50:13.955173	1	1	20211018v1-init	shark	50	Lc100Uf100Rc100	c	100	f	100	c	100	true	500	up	100	2	right	100	1	202904.351	203920.977	204420.957	205270.923	100	far	FALSE	devalue	first100	first20
49cb79aaff9677e5cfaba51e6a846602	NA	NA	habit	2021-10-18T23:50:13.955173	1	1	20211018v1-init	shark	51	Lc100Uf100Rc100	c	100	f	100	c	100	true	750	right	100	1	left	100	1	206254.217	207287.509	208037.479	208237.471	100	close	TRUE	devalue	first20	first50
49cb79aaff9677e5cfaba51e6a846602	NA	NA	habit	2021-10-18T23:50:13.955173	1	1	20211018v1-init	shark	52	Lc100Uf100Rc100	c	100	f	100	c	100	true	500	up	100	2	left	100	1	208570.791	209587.417	210087.397	211021.22	100	far	FALSE	devalue	first100	first50
49cb79aaff9677e5cfaba51e6a846602	NA	NA	habit	2021-10-18T23:50:13.955173	1	1	20211018v1-init	shark	53	Lc100Uf100Rc100	c	100	f	100	c	100	true	467	up	100	2	left	100	1	211887.852	212904.478	213371.126	214287.756	100	far	FALSE	devalue	first100	first50
49cb79aaff9677e5cfaba51e6a846602	NA	NA	habit	2021-10-18T23:50:13.955173	1	1	20211018v1-init	shark	54	Lc100Uf100Rc100	c	100	f	100	c	100	true	583	up	100	2	right	100	1	215287.716	216321.008	216904.318	217654.288	100	far	FALSE	devalue	first100	first20
49cb79aaff9677e5cfaba51e6a846602	NA	NA	habit	2021-10-18T23:50:13.955173	1	1	20211018v1-init	shark	55	Lc100Uf100Rc100	c	100	f	100	c	100	true	567	up	100	2	right	100	1	218554.252	219570.878	220137.522	221037.972	100	far	FALSE	devalue	first100	first20
49cb79aaff9677e5cfaba51e6a846602	NA	NA	habit	2021-10-18T23:50:13.955173	1	1	20211018v1-init	shark	56	Lc100Uf100Rc100	c	100	f	100	c	100	true	417	up	100	2	left	100	1	221921.27	222937.896	223354.546	224221.178	100	far	FALSE	devalue	first100	first50
49cb79aaff9677e5cfaba51e6a846602	NA	NA	habit	2021-10-18T23:50:13.955173	1	1	20211018v1-init	shark	57	Lc100Uf100Rc100	c	100	f	100	c	100	true	833	right	100	1	left	100	1	225121.142	226154.434	226987.734	227221.058	100	close	TRUE	devalue	first20	first50
49cb79aaff9677e5cfaba51e6a846602	NA	NA	habit	2021-10-18T23:50:13.955173	1	1	20211018v1-init	shark	58	Lc100Uf100Rc100	c	100	f	100	c	100	true	400	up	100	2	right	100	1	227537.712	228571.004	228970.988	229720.958	100	far	FALSE	devalue	first100	first20
49cb79aaff9677e5cfaba51e6a846602	NA	NA	habit	2021-10-18T23:50:13.955173	1	1	20211018v1-init	shark	59	Lc100Uf100Rc100	c	100	f	100	c	100	true	650	right	100	1	left	100	1	230788.068	231804.694	232454.668	232671.326	100	close	TRUE	devalue	first20	first50
49cb79aaff9677e5cfaba51e6a846602	NA	NA	habit	2021-10-18T23:50:13.955173	1	1	20211018v1-init	shark	60	Lc100Uf100Rc100	c	100	f	100	c	100	true	783	up	100	2	left	100	1	233004.646	234021.272	234804.574	235637.874	100	far	FALSE	devalue	first100	first50
49cb79aaff9677e5cfaba51e6a846602	NA	NA	habit	2021-10-18T23:50:13.955173	1	1	20211018v1-init	shark	61	Lc100Uf100Rc100	c	100	f	100	c	100	true	500	up	100	2	right	100	1	236604.502	237654.46	238154.44	238887.744	100	far	FALSE	devalue	first100	first20
49cb79aaff9677e5cfaba51e6a846602	NA	NA	habit	2021-10-18T23:50:13.955173	1	1	20211018v1-init	shark	62	Lc100Uf100Rc100	c	100	f	100	c	100	true	400	up	100	2	left	100	1	239721.044	240754.336	241154.32	241938.163	100	far	FALSE	devalue	first100	first50
49cb79aaff9677e5cfaba51e6a846602	NA	NA	habit	2021-10-18T23:50:13.955173	1	1	20211018v1-init	shark	63	Lc100Uf100Rc100	c	100	f	100	c	100	true	667	left	100	1	right	100	1	242921.457	243938.083	244604.723	244888.045	100	close	TRUE	devalue	first50	first20
49cb79aaff9677e5cfaba51e6a846602	NA	NA	habit	2021-10-18T23:50:13.955173	1	1	20211018v1-init	shark	64	Lc100Uf100Rc100	c	100	f	100	c	100	true	633	left	100	1	right	100	1	245154.701	246204.659	246837.967	247121.289	100	close	TRUE	devalue	first50	first20
49cb79aaff9677e5cfaba51e6a846602	NA	NA	habit	2021-10-18T23:50:13.955173	1	1	20211018v1-init	shark	65	Lc100Uf100Rc100	c	100	f	100	c	100	true	617	up	100	2	right	100	1	247454.609	248487.901	249104.543	250021.173	100	far	FALSE	devalue	first100	first20
49cb79aaff9677e5cfaba51e6a846602	NA	NA	habit	2021-10-18T23:50:13.955173	1	1	20211018v1-init	shark	66	Lc100Uf100Rc100	c	100	f	100	c	100	true	417	up	100	2	right	100	1	250871.139	251921.708	252338.358	253121.66	100	far	FALSE	devalue	first100	first20
49cb79aaff9677e5cfaba51e6a846602	NA	NA	habit	2021-10-18T23:50:13.955173	1	1	20211018v1-init	shark	67	Lc100Uf100Rc100	c	100	f	100	c	100	true	367	up	100	2	left	100	1	254138.286	255154.912	255521.564	256338.198	100	far	FALSE	devalue	first100	first50
49cb79aaff9677e5cfaba51e6a846602	NA	NA	habit	2021-10-18T23:50:13.955173	1	1	20211018v1-init	shark	68	Lc100Uf100Rc100	c	100	f	100	c	100	true	817	left	100	1	right	100	1	257304.826	258321.452	259138.086	259404.742	100	close	TRUE	devalue	first50	first20
49cb79aaff9677e5cfaba51e6a846602	NA	NA	habit	2021-10-18T23:50:13.955173	1	1	20211018v1-init	shark	69	Lc100Uf100Rc100	c	100	f	100	c	100	true	567	right	100	1	left	100	1	259704.73	260738.022	261304.666	261605.115	100	close	TRUE	devalue	first20	first50
49cb79aaff9677e5cfaba51e6a846602	NA	NA	habit	2021-10-18T23:50:13.955173	1	1	20211018v1-init	shark	70	Lc100Uf100Rc100	c	100	f	100	c	100	true	450	up	100	2	left	100	1	261955.101	262971.727	263421.709	264271.675	100	far	FALSE	devalue	first100	first50
49cb79aaff9677e5cfaba51e6a846602	NA	NA	habit	2021-10-18T23:50:13.955173	1	1	20211018v1-init	shark	71	Lc100Uf100Rc100	c	100	f	100	c	100	true	433	up	100	2	right	100	1	265321.633	266371.591	266804.907	267721.537	100	far	FALSE	devalue	first100	first20
ab8b7b5df1d633ef4840317085787b05	24	F	habit	2021-11-01T14:37:40.68501	1	1	20211025v3-longertrials	alien	1	Lf100Uc50Rc20	f	100	c	50	c	20	true	883	left	100	2	right	20	1	111806.8	112823.128	113705.875	114572.294	100	far	TRUE	init	first100	first20
ab8b7b5df1d633ef4840317085787b05	24	F	habit	2021-11-01T14:37:40.68501	1	1	20211025v3-longertrials	alien	2	Lf100Uc50Rc20	f	100	c	50	c	20	true	633	left	100	2	right	20	1	115421.861	116454.518	117087.707	117904.118	100	far	TRUE	init	first100	first20
ab8b7b5df1d633ef4840317085787b05	24	F	habit	2021-11-01T14:37:40.68501	1	1	20211025v3-longertrials	alien	3	Lf100Uc50Rc20	f	100	c	50	c	20	true	716	left	100	2	up	50	1	118820.172	119853.11	120569.54	121285.693	100	far	TRUE	init	first100	first50
ab8b7b5df1d633ef4840317085787b05	24	F	habit	2021-11-01T14:37:40.68501	1	1	20211025v3-longertrials	alien	4	Lf100Uc50Rc20	f	100	c	50	c	20	true	933	up	50	1	right	20	1	122035.464	123084.89	124017.866	124251.198	50	close	TRUE	init	first50	first20
ab8b7b5df1d633ef4840317085787b05	24	F	habit	2021-11-01T14:37:40.68501	1	1	20211025v3-longertrials	alien	5	Lf100Uc50Rc20	f	100	c	50	c	20	true	650	left	100	2	up	50	1	124551.033	125583.676	126233.428	126999.864	100	far	TRUE	init	first100	first50
ab8b7b5df1d633ef4840317085787b05	24	F	habit	2021-11-01T14:37:40.68501	1	1	20211025v3-longertrials	alien	6	Lf100Uc50Rc20	f	100	c	50	c	20	false	466	right	20	1	left	100	2	127832.842	128865.581	129331.997	129565.338	20	close	FALSE	init	first20	first100
ab8b7b5df1d633ef4840317085787b05	24	F	habit	2021-11-01T14:37:40.68501	1	1	20211025v3-longertrials	alien	7	Lf100Uc50Rc20	f	100	c	50	c	20	false	1000	up	50	1	right	20	1	129898.531	130948.056	131947.566	132214.257	50	close	TRUE	init	first50	first20
ab8b7b5df1d633ef4840317085787b05	24	F	habit	2021-11-01T14:37:40.68501	1	1	20211025v3-longertrials	alien	8	Lf100Uc50Rc20	f	100	c	50	c	20	false	967	right	20	1	up	50	1	132513.9	133546.729	134513.243	134729.77	20	close	FALSE	init	first20	first50
ab8b7b5df1d633ef4840317085787b05	24	F	habit	2021-11-01T14:37:40.68501	1	1	20211025v3-longertrials	alien	9	Lf100Uc50Rc20	f	100	c	50	c	20	true	1066	left	100	2	right	20	1	134979.428	135995.669	137062.05	137861.742	100	far	TRUE	init	first100	first20
ab8b7b5df1d633ef4840317085787b05	24	F	habit	2021-11-01T14:37:40.68501	1	1	20211025v3-longertrials	alien	10	Lf100Uc50Rc20	f	100	c	50	c	20	true	567	left	100	2	up	50	1	138761.161	139777.347	140343.92	141060.228	100	far	TRUE	init	first100	first50
ab8b7b5df1d633ef4840317085787b05	24	F	habit	2021-11-01T14:37:40.68501	1	1	20211025v3-longertrials	alien	11	Lf100Uc50Rc20	f	100	c	50	c	20	false	517	right	20	1	up	50	1	141859.867	142892.643	143409.173	143625.475	20	close	FALSE	init	first20	first50
ab8b7b5df1d633ef4840317085787b05	24	F	habit	2021-11-01T14:37:40.68501	1	1	20211025v3-longertrials	alien	12	Lf100Uc50Rc20	f	100	c	50	c	20	false	950	up	50	1	right	20	1	143875.388	144891.795	145841.416	146041.213	50	close	TRUE	init	first50	first20
ab8b7b5df1d633ef4840317085787b05	24	F	habit	2021-11-01T14:37:40.68501	1	1	20211025v3-longertrials	alien	13	Lf100Uc50Rc20	f	100	c	50	c	20	true	500	left	100	2	up	50	1	146257.767	147274.089	147773.667	148640.013	100	far	TRUE	init	first100	first50
ab8b7b5df1d633ef4840317085787b05	24	F	habit	2021-11-01T14:37:40.68501	1	1	20211025v3-longertrials	alien	14	Lf100Uc50Rc20	f	100	c	50	c	20	true	516	left	100	2	up	50	1	149406.261	150422.625	150938.956	151722.103	100	far	TRUE	init	first100	first50
ab8b7b5df1d633ef4840317085787b05	24	F	habit	2021-11-01T14:37:40.68501	1	1	20211025v3-longertrials	alien	15	Lf100Uc50Rc20	f	100	c	50	c	20	true	650	left	100	2	up	50	1	152621.642	153671.129	154320.838	155037.043	100	far	TRUE	init	first100	first50
ab8b7b5df1d633ef4840317085787b05	24	F	habit	2021-11-01T14:37:40.68501	1	1	20211025v3-longertrials	alien	16	Lf100Uc50Rc20	f	100	c	50	c	20	false	900	right	20	1	up	50	1	155953.396	156969.674	157869.322	158085.616	20	close	FALSE	init	first20	first50
ab8b7b5df1d633ef4840317085787b05	24	F	habit	2021-11-01T14:37:40.68501	1	1	20211025v3-longertrials	alien	17	Lf100Uc50Rc20	f	100	c	50	c	20	true	616	left	100	2	right	20	1	158435.466	159451.963	160068.234	160817.829	100	far	TRUE	init	first100	first20
ab8b7b5df1d633ef4840317085787b05	24	F	habit	2021-11-01T14:37:40.68501	1	1	20211025v3-longertrials	alien	18	Lf100Uc50Rc20	f	100	c	50	c	20	false	400	up	50	1	right	20	1	161667.409	162700.398	163100.226	163300.084	50	close	TRUE	init	first50	first20
ab8b7b5df1d633ef4840317085787b05	24	F	habit	2021-11-01T14:37:40.68501	1	1	20211025v3-longertrials	alien	19	Lf100Uc50Rc20	f	100	c	50	c	20	true	450	left	100	2	up	50	1	163533.148	164549.577	164999.372	165732.41	100	far	TRUE	init	first100	first50
ab8b7b5df1d633ef4840317085787b05	24	F	habit	2021-11-01T14:37:40.68501	1	1	20211025v3-longertrials	alien	20	Lf100Uc50Rc20	f	100	c	50	c	20	true	433	left	100	2	right	20	1	166515.25	167564.683	167997.929	168814.145	100	far	TRUE	init	first100	first20
ab8b7b5df1d633ef4840317085787b05	24	F	habit	2021-11-01T14:37:40.68501	1	1	20211025v3-longertrials	alien	21	Lf100Uc50Rc20	f	100	c	50	c	20	false	467	up	50	1	right	20	1	169663.963	170696.537	171163.29	171412.856	50	close	TRUE	init	first50	first20
ab8b7b5df1d633ef4840317085787b05	24	F	habit	2021-11-01T14:37:40.68501	1	1	20211025v3-longertrials	alien	22	Lf100Uc50Rc20	f	100	c	50	c	20	true	450	left	100	2	right	20	1	171612.816	172662.521	173112.271	173978.639	100	far	TRUE	init	first100	first20
ab8b7b5df1d633ef4840317085787b05	24	F	habit	2021-11-01T14:37:40.68501	1	1	20211025v3-longertrials	alien	23	Lf100Uc50Rc20	f	100	c	50	c	20	false	733	right	20	1	up	50	1	174894.657	175911.097	176644.078	176860.488	20	close	FALSE	init	first20	first50
ab8b7b5df1d633ef4840317085787b05	24	F	habit	2021-11-01T14:37:40.68501	1	1	20211025v3-longertrials	alien	24	Lf100Uc50Rc20	f	100	c	50	c	20	true	716	right	20	1	up	50	1	177160.319	178193.258	178909.713	179109.566	20	close	FALSE	init	first20	first50
ab8b7b5df1d633ef4840317085787b05	24	F	habit	2021-11-01T14:37:40.68501	1	1	20211025v3-longertrials	alien	25	Lf100Uc50Rc20	f	100	c	50	c	20	true	483	left	100	2	right	20	1	179409.29	180425.468	180908.618	181674.89	100	far	TRUE	init	first100	first20
ab8b7b5df1d633ef4840317085787b05	24	F	habit	2021-11-01T14:37:40.68501	1	1	20211025v3-longertrials	alien	26	Lf100Uc50Rc20	f	100	c	50	c	20	false	600	right	20	1	up	50	1	182457.996	183474.326	184074.004	184340.63	20	close	FALSE	init	first20	first50
ab8b7b5df1d633ef4840317085787b05	24	F	habit	2021-11-01T14:37:40.68501	1	1	20211025v3-longertrials	alien	27	Lf100Uc50Rc20	f	100	c	50	c	20	false	366	right	20	1	up	50	1	184606.986	185623.407	185989.631	186189.481	20	close	FALSE	init	first20	first50
ab8b7b5df1d633ef4840317085787b05	24	F	habit	2021-11-01T14:37:40.68501	1	1	20211025v3-longertrials	alien	28	Lf100Uc50Rc20	f	100	c	50	c	20	true	367	up	50	1	left	100	2	186472.76	187505.583	187872.13	188122.218	50	close	FALSE	init	first50	first100
ab8b7b5df1d633ef4840317085787b05	24	F	habit	2021-11-01T14:37:40.68501	1	1	20211025v3-longertrials	alien	29	Lf100Uc50Rc20	f	100	c	50	c	20	true	566	left	100	2	right	20	1	188388.639	189438.226	190004.716	190804.183	100	far	TRUE	init	first100	first20
ab8b7b5df1d633ef4840317085787b05	24	F	habit	2021-11-01T14:37:40.68501	1	1	20211025v3-longertrials	alien	30	Lf100Uc50Rc20	f	100	c	50	c	20	false	500	up	50	1	right	20	1	191603.974	192636.661	193136.41	193369.764	50	close	TRUE	init	first50	first20
ab8b7b5df1d633ef4840317085787b05	24	F	habit	2021-11-01T14:37:40.68501	1	1	20211025v3-longertrials	alien	31	Lf100Uc50Rc20	f	100	c	50	c	20	false	633	right	20	1	up	50	1	193686.173	194735.637	195368.681	195585.275	20	close	FALSE	init	first20	first50
ab8b7b5df1d633ef4840317085787b05	24	F	habit	2021-11-01T14:37:40.68501	1	1	20211025v3-longertrials	alien	32	Lf100Uc50Rc20	f	100	c	50	c	20	true	633	left	100	2	right	20	1	195868.643	196918.149	197551.189	198284.301	100	far	TRUE	init	first100	first20
ab8b7b5df1d633ef4840317085787b05	24	F	habit	2021-11-01T14:37:40.68501	1	1	20211025v3-longertrials	alien	33	Lf100Uc50Rc20	f	100	c	50	c	20	true	533	left	100	2	up	50	1	199133.638	200183.325	200716.274	201532.604	100	far	TRUE	init	first100	first50
ab8b7b5df1d633ef4840317085787b05	24	F	habit	2021-11-01T14:37:40.68501	1	1	20211025v3-longertrials	alien	34	Lf100Uc50Rc20	f	100	c	50	c	20	false	666	up	50	1	right	20	1	202315.537	203348.606	204014.784	204264.708	50	close	TRUE	init	first50	first20
ab8b7b5df1d633ef4840317085787b05	24	F	habit	2021-11-01T14:37:40.68501	1	1	20211025v3-longertrials	alien	35	Lf100Uc50Rc20	f	100	c	50	c	20	true	483	left	100	2	right	20	1	204514.438	205564.32	206047.358	206746.901	100	far	TRUE	init	first100	first20
ab8b7b5df1d633ef4840317085787b05	24	F	habit	2021-11-01T14:37:40.68501	1	1	20211025v3-longertrials	alien	36	Lf100Uc50Rc20	f	100	c	50	c	20	true	533	left	100	2	up	50	1	207563.357	208612.933	209145.759	209879.003	100	far	TRUE	init	first100	first50
ab8b7b5df1d633ef4840317085787b05	24	F	habit	2021-11-01T14:37:40.68501	1	1	20211025v3-longertrials	alien	37	Lf100Uc50Rc20	f	100	c	50	c	20	true	416	left	100	2	up	50	1	210645.273	211661.415	212077.901	212894.344	100	far	TRUE	init	first100	first50
ab8b7b5df1d633ef4840317085787b05	24	F	habit	2021-11-01T14:37:40.68501	1	1	20211025v3-longertrials	alien	38	Lf100Uc50Rc20	f	100	c	50	c	20	false	500	right	20	1	left	100	2	213777.1	214793.482	215293.242	215543.136	20	close	FALSE	init	first20	first100
ab8b7b5df1d633ef4840317085787b05	24	F	habit	2021-11-01T14:37:40.68501	1	1	20211025v3-longertrials	alien	39	Lf100Uc50Rc20	f	100	c	50	c	20	true	300	left	100	2	right	20	1	215842.961	216859.065	217159.041	217925.235	100	far	TRUE	init	first100	first20
ab8b7b5df1d633ef4840317085787b05	24	F	habit	2021-11-01T14:37:40.68501	1	1	20211025v3-longertrials	alien	40	Lf100Uc50Rc20	f	100	c	50	c	20	true	317	left	100	2	up	50	1	218674.838	219724.522	220041.061	220840.757	100	far	TRUE	init	first100	first50
ab8b7b5df1d633ef4840317085787b05	24	F	habit	2021-11-01T14:37:40.68501	1	1	20211025v3-longertrials	alien	41	Lf100Uc50Rc20	f	100	c	50	c	20	true	550	left	100	2	right	20	1	221590.088	222623.178	223172.745	224055.736	100	far	TRUE	init	first100	first20
ab8b7b5df1d633ef4840317085787b05	24	F	habit	2021-11-01T14:37:40.68501	1	1	20211025v3-longertrials	alien	42	Lf100Uc50Rc20	f	100	c	50	c	20	true	266	left	100	2	up	50	1	224821.981	225871.72	226138.166	226954.421	100	far	TRUE	init	first100	first50
ab8b7b5df1d633ef4840317085787b05	24	F	habit	2021-11-01T14:37:40.68501	1	1	20211025v3-longertrials	alien	43	Lf100Uc50Rc20	f	100	c	50	c	20	true	267	left	100	2	up	50	1	227737.461	228786.827	229053.647	229803.011	100	far	TRUE	init	first100	first50
ab8b7b5df1d633ef4840317085787b05	24	F	habit	2021-11-01T14:37:40.68501	1	1	20211025v3-longertrials	alien	44	Lf100Uc50Rc20	f	100	c	50	c	20	true	283	left	100	2	right	20	1	230619.554	231635.624	231918.923	232735.197	100	far	TRUE	init	first100	first20
ab8b7b5df1d633ef4840317085787b05	24	F	habit	2021-11-01T14:37:40.68501	1	1	20211025v3-longertrials	alien	45	Lf100Uc50Rc20	f	100	c	50	c	20	true	300	left	100	2	up	50	1	233568.088	234601.081	234900.959	235867.019	100	far	TRUE	init	first100	first50
ab8b7b5df1d633ef4840317085787b05	24	F	habit	2021-11-01T14:37:40.68501	1	1	20211025v3-longertrials	alien	46	Lf100Uc50Rc20	f	100	c	50	c	20	true	300	left	100	2	up	50	1	236833.444	237849.696	238149.535	238965.495	100	far	TRUE	init	first100	first50
ab8b7b5df1d633ef4840317085787b05	24	F	habit	2021-11-01T14:37:40.68501	1	1	20211025v3-longertrials	alien	47	Lf100Uc50Rc20	f	100	c	50	c	20	false	933	up	50	1	right	20	1	239815.43	240831.606	241764.334	241964.211	50	close	TRUE	init	first50	first20
ab8b7b5df1d633ef4840317085787b05	24	F	habit	2021-11-01T14:37:40.68501	1	1	20211025v3-longertrials	alien	48	Lf100Uc50Rc20	f	100	c	50	c	20	true	500	left	100	2	right	20	1	242197.539	243230.518	243730.045	244463.082	100	far	TRUE	init	first100	first20
ab8b7b5df1d633ef4840317085787b05	24	F	habit	2021-11-01T14:37:40.68501	1	1	20211025v3-longertrials	alien	49	Lf100Uc50Rc20	f	100	c	50	c	20	false	583	right	50	1	up	20	1	245262.699	246278.947	246862.298	247095.207	20	close	TRUE	init	first20	first50
ab8b7b5df1d633ef4840317085787b05	24	F	habit	2021-11-01T14:37:40.68501	1	1	20211025v3-longertrials	alien	50	Lf100Uc20Rc50	f	100	c	20	c	50	false	400	up	20	1	right	50	1	247328.574	248344.627	248744.4	248944.445	20	close	FALSE	switch	first50	first20
ab8b7b5df1d633ef4840317085787b05	24	F	habit	2021-11-01T14:37:40.68501	1	1	20211025v3-longertrials	alien	51	Lf100Uc20Rc50	f	100	c	20	c	50	true	283	left	100	2	right	50	1	249160.958	250210.676	250493.677	251193.592	100	far	TRUE	switch	first100	first20
ab8b7b5df1d633ef4840317085787b05	24	F	habit	2021-11-01T14:37:40.68501	1	1	20211025v3-longertrials	alien	52	Lf100Uc20Rc50	f	100	c	20	c	50	true	450	left	100	2	right	50	1	252026.374	253075.822	253525.648	254291.968	100	far	TRUE	switch	first100	first20
ab8b7b5df1d633ef4840317085787b05	24	F	habit	2021-11-01T14:37:40.68501	1	1	20211025v3-longertrials	alien	53	Lf100Uc20Rc50	f	100	c	20	c	50	true	367	left	100	2	up	20	1	255141.762	256157.804	256524.462	257257.385	100	far	TRUE	switch	first100	first50
ab8b7b5df1d633ef4840317085787b05	24	F	habit	2021-11-01T14:37:40.68501	1	1	20211025v3-longertrials	alien	54	Lf100Uc20Rc50	f	100	c	20	c	50	true	333	left	100	2	right	50	1	258073.734	259106.477	259439.916	260139.314	100	far	TRUE	switch	first100	first20
ab8b7b5df1d633ef4840317085787b05	24	F	habit	2021-11-01T14:37:40.68501	1	1	20211025v3-longertrials	alien	55	Lf100Uc20Rc50	f	100	c	20	c	50	true	317	left	100	2	right	50	1	261022.177	262038.454	262355.09	263321.229	100	far	TRUE	switch	first100	first20
ab8b7b5df1d633ef4840317085787b05	24	F	habit	2021-11-01T14:37:40.68501	1	1	20211025v3-longertrials	alien	56	Lf100Uc20Rc50	f	100	c	20	c	50	true	367	left	100	2	right	50	1	264154.144	265187.006	265553.836	266386.44	100	far	TRUE	switch	first100	first20
ab8b7b5df1d633ef4840317085787b05	24	F	habit	2021-11-01T14:37:40.68501	1	1	20211025v3-longertrials	alien	57	Lf100Uc20Rc50	f	100	c	20	c	50	true	433	left	100	2	up	20	1	267252.681	268269.202	268702.284	269468.437	100	far	TRUE	switch	first100	first50
ab8b7b5df1d633ef4840317085787b05	24	F	habit	2021-11-01T14:37:40.68501	1	1	20211025v3-longertrials	alien	58	Lf100Uc20Rc50	f	100	c	20	c	50	true	333	left	100	2	right	50	1	270268.233	271284.407	271617.525	272367.129	100	far	TRUE	switch	first100	first20
ab8b7b5df1d633ef4840317085787b05	24	F	habit	2021-11-01T14:37:40.68501	1	1	20211025v3-longertrials	alien	59	Lf100Uc20Rc50	f	100	c	20	c	50	true	333	left	100	2	up	20	1	273150.072	274199.788	274532.751	275282.667	100	far	TRUE	switch	first100	first50
ab8b7b5df1d633ef4840317085787b05	24	F	habit	2021-11-01T14:37:40.68501	1	1	20211025v3-longertrials	alien	60	Lf100Uc20Rc50	f	100	c	20	c	50	false	683	up	20	1	right	50	1	276098.87	277115.094	277798.144	278014.449	20	close	FALSE	switch	first50	first20
ab8b7b5df1d633ef4840317085787b05	24	F	habit	2021-11-01T14:37:40.68501	1	1	20211025v3-longertrials	alien	61	Lf100Uc20Rc50	f	100	c	20	c	50	true	400	right	50	1	up	20	1	278264.394	279280.567	279680.364	279897.063	50	close	TRUE	switch	first20	first50
ab8b7b5df1d633ef4840317085787b05	24	F	habit	2021-11-01T14:37:40.68501	1	1	20211025v3-longertrials	alien	62	Lf100Uc20Rc50	f	100	c	20	c	50	true	400	left	100	2	up	20	1	280130.298	281146.473	281546.238	282245.857	100	far	TRUE	switch	first100	first50
ab8b7b5df1d633ef4840317085787b05	24	F	habit	2021-11-01T14:37:40.68501	1	1	20211025v3-longertrials	alien	63	Lf100Uc20Rc50	f	100	c	20	c	50	true	433	right	50	1	up	20	1	283062.508	284078.47	284511.791	284728.234	50	close	TRUE	switch	first20	first50
ab8b7b5df1d633ef4840317085787b05	24	F	habit	2021-11-01T14:37:40.68501	1	1	20211025v3-longertrials	alien	64	Lf100Uc20Rc50	f	100	c	20	c	50	true	350	left	100	2	right	50	1	284978.107	285994.336	286344.091	287110.431	100	far	TRUE	switch	first100	first20
ab8b7b5df1d633ef4840317085787b05	24	F	habit	2021-11-01T14:37:40.68501	1	1	20211025v3-longertrials	alien	65	Lf100Uc20Rc50	f	100	c	20	c	50	true	333	left	100	2	up	20	1	287893.379	288909.551	289242.99	289975.723	100	far	TRUE	switch	first100	first50
ab8b7b5df1d633ef4840317085787b05	24	F	habit	2021-11-01T14:37:40.68501	1	1	20211025v3-longertrials	alien	66	Lf100Uc20Rc50	f	100	c	20	c	50	true	333	left	100	2	up	20	1	290808.827	291841.779	292174.903	292907.894	100	far	TRUE	switch	first100	first50
ab8b7b5df1d633ef4840317085787b05	24	F	habit	2021-11-01T14:37:40.68501	1	1	20211025v3-longertrials	alien	67	Lf100Uc20Rc50	f	100	c	20	c	50	true	350	left	100	2	up	20	1	293674.155	294707.119	295056.878	295773.143	100	far	TRUE	switch	first100	first50
ab8b7b5df1d633ef4840317085787b05	24	F	habit	2021-11-01T14:37:40.68501	1	1	20211025v3-longertrials	alien	68	Lf100Uc20Rc50	f	100	c	20	c	50	false	533	right	50	1	up	20	1	296639.437	297672.283	298205.385	298405.235	50	close	TRUE	switch	first20	first50
ab8b7b5df1d633ef4840317085787b05	24	F	habit	2021-11-01T14:37:40.68501	1	1	20211025v3-longertrials	alien	69	Lf100Uc20Rc50	f	100	c	20	c	50	false	300	right	50	1	left	100	2	298671.786	299688.053	299988.041	300171.371	50	close	FALSE	switch	first20	first100
ab8b7b5df1d633ef4840317085787b05	24	F	habit	2021-11-01T14:37:40.68501	1	1	20211025v3-longertrials	alien	70	Lf100Uc20Rc50	f	100	c	20	c	50	false	650	right	50	1	up	20	1	300437.856	301470.659	302120.178	302303.818	50	close	TRUE	switch	first20	first50
ab8b7b5df1d633ef4840317085787b05	24	F	habit	2021-11-01T14:37:40.68501	1	1	20211025v3-longertrials	alien	71	Lf100Uc20Rc50	f	100	c	20	c	50	true	433	left	100	2	right	50	1	302570.246	303619.787	304052.936	304819.238	100	far	TRUE	switch	first100	first20
ab8b7b5df1d633ef4840317085787b05	24	F	habit	2021-11-01T14:37:40.68501	1	1	20211025v3-longertrials	alien	72	Lf100Uc20Rc50	f	100	c	20	c	50	false	383	up	20	1	left	100	2	305635.3	306668.181	307051.508	307234.651	20	close	FALSE	switch	first50	first100
ab8b7b5df1d633ef4840317085787b05	24	F	habit	2021-11-01T14:37:40.68501	1	1	20211025v3-longertrials	alien	73	Lf100Uc20Rc50	f	100	c	20	c	50	true	333	left	100	2	right	50	1	307451.377	308467.482	308800.503	309516.9	100	far	TRUE	switch	first100	first20
ab8b7b5df1d633ef4840317085787b05	24	F	habit	2021-11-01T14:37:40.68501	1	1	20211025v3-longertrials	alien	74	Lf100Uc20Rc50	f	100	c	20	c	50	true	350	right	50	1	up	20	1	310283.455	311316.069	311665.889	311849.277	50	close	TRUE	switch	first20	first50
ab8b7b5df1d633ef4840317085787b05	24	F	habit	2021-11-01T14:37:40.68501	1	1	20211025v3-longertrials	alien	75	Lf100Uc20Rc50	f	100	c	20	c	50	false	317	right	50	1	up	20	1	312115.699	313165.227	313481.994	313681.732	50	close	TRUE	switch	first20	first50
ab8b7b5df1d633ef4840317085787b05	24	F	habit	2021-11-01T14:37:40.68501	1	1	20211025v3-longertrials	alien	76	Lf100Uc20Rc50	f	100	c	20	c	50	true	333	right	50	1	left	100	2	313981.524	315031.264	315364.186	315564.172	50	close	FALSE	switch	first20	first100
ab8b7b5df1d633ef4840317085787b05	24	F	habit	2021-11-01T14:37:40.68501	1	1	20211025v3-longertrials	alien	77	Lf100Uc20Rc50	f	100	c	20	c	50	true	450	left	100	2	up	20	1	315864.28	316880.28	317330.215	318079.814	100	far	TRUE	switch	first100	first50
ab8b7b5df1d633ef4840317085787b05	24	F	habit	2021-11-01T14:37:40.68501	1	1	20211025v3-longertrials	alien	78	Lf100Uc20Rc50	f	100	c	20	c	50	true	333	right	50	1	up	20	1	318829.368	319845.557	320178.963	320412.217	50	close	TRUE	switch	first20	first50
ab8b7b5df1d633ef4840317085787b05	24	F	habit	2021-11-01T14:37:40.68501	1	1	20211025v3-longertrials	alien	79	Lf100Uc20Rc50	f	100	c	20	c	50	true	300	right	50	1	left	100	2	320695.138	321744.757	322044.599	322294.413	50	close	FALSE	switch	first20	first100
ab8b7b5df1d633ef4840317085787b05	24	F	habit	2021-11-01T14:37:40.68501	1	1	20211025v3-longertrials	alien	80	Lf100Uc20Rc50	f	100	c	20	c	50	true	317	right	50	1	up	20	1	322577.572	323610.516	323927.16	324110.442	50	close	TRUE	switch	first20	first50
ab8b7b5df1d633ef4840317085787b05	24	F	habit	2021-11-01T14:37:40.68501	1	1	20211025v3-longertrials	alien	81	Lf100Uc20Rc50	f	100	c	20	c	50	true	217	right	50	1	up	20	1	324376.857	325426.367	325642.933	325843.074	50	close	TRUE	switch	first20	first50
ab8b7b5df1d633ef4840317085787b05	24	F	habit	2021-11-01T14:37:40.68501	1	1	20211025v3-longertrials	alien	82	Lf100Uc20Rc50	f	100	c	20	c	50	false	300	right	50	1	up	20	1	326109.434	327125.559	327425.468	327625.309	50	close	TRUE	switch	first20	first50
ab8b7b5df1d633ef4840317085787b05	24	F	habit	2021-11-01T14:37:40.68501	1	1	20211025v3-longertrials	alien	83	Lf100Uc20Rc50	f	100	c	20	c	50	false	283	right	50	1	left	100	2	327958.696	328974.851	329257.997	329491.36	50	close	FALSE	switch	first20	first100
ab8b7b5df1d633ef4840317085787b05	24	F	habit	2021-11-01T14:37:40.68501	1	1	20211025v3-longertrials	alien	84	Lf100Uc20Rc50	f	100	c	20	c	50	true	400	left	100	2	up	20	1	329724.382	330740.606	331140.654	331873.679	100	far	TRUE	switch	first100	first50
ab8b7b5df1d633ef4840317085787b05	24	F	habit	2021-11-01T14:37:40.68501	1	1	20211025v3-longertrials	alien	85	Lf100Uc20Rc50	f	100	c	20	c	50	true	733	up	20	1	left	100	2	332706.43	333722.801	334455.58	334655.461	20	close	FALSE	switch	first50	first100
ab8b7b5df1d633ef4840317085787b05	24	F	habit	2021-11-01T14:37:40.68501	1	1	20211025v3-longertrials	alien	86	Lf100Uc20Rc50	f	100	c	20	c	50	false	416	up	20	1	left	100	2	334872.111	335888.429	336304.78	336538.144	20	close	FALSE	switch	first50	first100
ab8b7b5df1d633ef4840317085787b05	24	F	habit	2021-11-01T14:37:40.68501	1	1	20211025v3-longertrials	alien	87	Lf100Uc20Rc50	f	100	c	20	c	50	true	366	left	100	2	up	20	1	336821.423	337854.328	338220.781	338970.355	100	far	TRUE	switch	first100	first50
ab8b7b5df1d633ef4840317085787b05	24	F	habit	2021-11-01T14:37:40.68501	1	1	20211025v3-longertrials	alien	88	Lf100Uc20Rc50	f	100	c	20	c	50	true	450	right	50	1	left	100	2	339736.491	340752.896	341202.707	341469.323	50	close	FALSE	switch	first20	first100
ab8b7b5df1d633ef4840317085787b05	24	F	habit	2021-11-01T14:37:40.68501	1	1	20211025v3-longertrials	alien	89	Lf100Uc20Rc50	f	100	c	20	c	50	true	416	right	50	1	up	20	1	341702.461	342752.063	343168.223	343368.392	50	close	TRUE	switch	first20	first50
ab8b7b5df1d633ef4840317085787b05	24	F	habit	2021-11-01T14:37:40.68501	1	1	20211025v3-longertrials	alien	90	Lf100Uc20Rc50	f	100	c	20	c	50	true	400	left	100	2	up	20	1	343634.842	344684.369	345084.275	345817.132	100	far	TRUE	switch	first100	first50
ab8b7b5df1d633ef4840317085787b05	24	F	habit	2021-11-01T14:37:40.68501	1	1	20211025v3-longertrials	alien	91	Lf100Uc20Rc50	f	100	c	20	c	50	true	550	left	100	2	up	20	1	346683.35	347733.071	348282.833	349015.606	100	far	TRUE	switch	first100	first50
ab8b7b5df1d633ef4840317085787b05	24	F	habit	2021-11-01T14:37:40.68501	1	1	20211025v3-longertrials	alien	92	Lf100Uc20Rc50	f	100	c	20	c	50	true	266	right	50	1	up	20	1	349848.828	350881.676	351148.145	351381.442	50	close	TRUE	switch	first20	first50
ab8b7b5df1d633ef4840317085787b05	24	F	habit	2021-11-01T14:37:40.68501	1	1	20211025v3-longertrials	alien	93	Lf100Uc20Rc50	f	100	c	20	c	50	true	283	right	50	1	left	100	2	351631.331	352664.224	352947.285	353163.811	50	close	FALSE	switch	first20	first100
ab8b7b5df1d633ef4840317085787b05	24	F	habit	2021-11-01T14:37:40.68501	1	1	20211025v3-longertrials	alien	94	Lf100Uc20Rc50	f	100	c	20	c	50	true	300	right	50	1	left	100	2	353446.837	354463.15	354763.241	354979.599	50	close	FALSE	switch	first20	first100
ab8b7b5df1d633ef4840317085787b05	24	F	habit	2021-11-01T14:37:40.68501	1	1	20211025v3-longertrials	alien	95	Lf100Uc20Rc50	f	100	c	20	c	50	false	300	right	50	1	up	20	1	355229.503	356245.726	356545.64	356778.765	50	close	TRUE	switch	first20	first50
ab8b7b5df1d633ef4840317085787b05	24	F	habit	2021-11-01T14:37:40.68501	1	1	20211025v3-longertrials	alien	96	Lf100Uc20Rc50	f	100	c	20	c	50	true	466	left	100	2	up	20	1	357045.385	358078.318	358544.788	359360.935	100	far	TRUE	switch	first100	first50
ab8b7b5df1d633ef4840317085787b05	24	F	habit	2021-11-01T14:37:40.68501	1	1	20211025v3-longertrials	alien	97	Lf100Uc20Rc50	f	100	c	20	c	50	true	283	right	100	1	up	100	1	360110.567	361126.885	361410.059	361626.645	50	close	TRUE	switch	first20	first50
ab8b7b5df1d633ef4840317085787b05	24	F	habit	2021-11-01T14:37:40.68501	1	1	20211025v3-longertrials	alien	98	Lf100Uc100Rc100	f	100	c	100	c	100	true	233	right	100	1	up	100	1	361893.165	362926.015	363159.252	363359.327	100	close	TRUE	devalue	first20	first50
ab8b7b5df1d633ef4840317085787b05	24	F	habit	2021-11-01T14:37:40.68501	1	1	20211025v3-longertrials	alien	99	Lf100Uc100Rc100	f	100	c	100	c	100	true	400	right	100	1	up	100	1	363659.181	364708.711	365108.395	365341.682	100	close	TRUE	devalue	first20	first50
ab8b7b5df1d633ef4840317085787b05	24	F	habit	2021-11-01T14:37:40.68501	1	1	20211025v3-longertrials	alien	100	Lf100Uc100Rc100	f	100	c	100	c	100	true	200	right	100	1	up	100	1	365591.592	366624.479	366824.189	367074.391	100	close	TRUE	devalue	first20	first50
ab8b7b5df1d633ef4840317085787b05	24	F	habit	2021-11-01T14:37:40.68501	1	1	20211025v3-longertrials	alien	101	Lf100Uc100Rc100	f	100	c	100	c	100	true	550	up	100	1	left	100	2	367374.21	368390.401	368940.006	369139.778	100	close	TRUE	devalue	first50	first100
ab8b7b5df1d633ef4840317085787b05	24	F	habit	2021-11-01T14:37:40.68501	1	1	20211025v3-longertrials	alien	102	Lf100Uc100Rc100	f	100	c	100	c	100	true	433	up	100	1	left	100	2	369406.373	370422.8	370855.764	371089.166	100	close	TRUE	devalue	first50	first100
ab8b7b5df1d633ef4840317085787b05	24	F	habit	2021-11-01T14:37:40.68501	1	1	20211025v3-longertrials	alien	103	Lf100Uc100Rc100	f	100	c	100	c	100	true	350	up	100	1	left	100	2	371288.895	372305.051	372654.931	372871.527	100	close	TRUE	devalue	first50	first100
ab8b7b5df1d633ef4840317085787b05	24	F	habit	2021-11-01T14:37:40.68501	1	1	20211025v3-longertrials	alien	104	Lf100Uc100Rc100	f	100	c	100	c	100	true	566	right	100	1	left	100	2	373088.006	374104.492	374670.628	374870.725	100	close	TRUE	devalue	first20	first100
ab8b7b5df1d633ef4840317085787b05	24	F	habit	2021-11-01T14:37:40.68501	1	1	20211025v3-longertrials	alien	105	Lf100Uc100Rc100	f	100	c	100	c	100	true	500	up	100	1	left	100	2	375187.2	376220.057	376719.662	376919.68	100	close	TRUE	devalue	first50	first100
ab8b7b5df1d633ef4840317085787b05	24	F	habit	2021-11-01T14:37:40.68501	1	1	20211025v3-longertrials	alien	106	Lf100Uc100Rc100	f	100	c	100	c	100	true	500	right	100	1	left	100	2	377169.576	378185.728	378685.458	378885.436	100	close	TRUE	devalue	first20	first100
ab8b7b5df1d633ef4840317085787b05	24	F	habit	2021-11-01T14:37:40.68501	1	1	20211025v3-longertrials	alien	107	Lf100Uc100Rc100	f	100	c	100	c	100	true	233	right	100	1	up	100	1	379152.158	380168.307	380401.636	380651.572	100	close	TRUE	devalue	first20	first50
ab8b7b5df1d633ef4840317085787b05	24	F	habit	2021-11-01T14:37:40.68501	1	1	20211025v3-longertrials	alien	108	Lf100Uc100Rc100	f	100	c	100	c	100	true	350	right	100	1	up	100	1	380967.836	381984.142	382333.855	382533.808	100	close	TRUE	devalue	first20	first50
ab8b7b5df1d633ef4840317085787b05	24	F	habit	2021-11-01T14:37:40.68501	1	1	20211025v3-longertrials	alien	109	Lf100Uc100Rc100	f	100	c	100	c	100	true	400	right	100	1	up	100	1	382833.75	383883.132	384283.187	384499.478	100	close	TRUE	devalue	first20	first50
ab8b7b5df1d633ef4840317085787b05	24	F	habit	2021-11-01T14:37:40.68501	1	1	20211025v3-longertrials	alien	110	Lf100Uc100Rc100	f	100	c	100	c	100	true	67	right	100	1	left	100	2	384749.435	385782.472	385848.984	386065.458	100	close	TRUE	devalue	first20	first100
ab8b7b5df1d633ef4840317085787b05	24	F	habit	2021-11-01T14:37:40.68501	1	1	20211025v3-longertrials	alien	111	Lf100Uc100Rc100	f	100	c	100	c	100	true	267	right	100	1	left	100	2	386298.684	387348.398	387614.922	387898.11	100	close	TRUE	devalue	first20	first100
ab8b7b5df1d633ef4840317085787b05	24	F	habit	2021-11-01T14:37:40.68501	1	1	20211025v3-longertrials	alien	112	Lf100Uc100Rc100	f	100	c	100	c	100	true	266	right	100	1	up	100	1	388181.257	389214.323	389480.671	389680.679	100	close	TRUE	devalue	first20	first50
ab8b7b5df1d633ef4840317085787b05	24	F	habit	2021-11-01T14:37:40.68501	1	1	20211025v3-longertrials	alien	113	Lf100Uc100Rc100	f	100	c	100	c	100	true	467	up	100	1	left	100	2	389947.112	390996.541	391463.069	391663.012	100	close	TRUE	devalue	first50	first100
ab8b7b5df1d633ef4840317085787b05	24	F	habit	2021-11-01T14:37:40.68501	1	1	20211025v3-longertrials	alien	114	Lf100Uc100Rc100	f	100	c	100	c	100	true	33	right	100	1	left	100	2	391896.162	392912.613	392945.609	393178.952	100	close	TRUE	devalue	first20	first100
ab8b7b5df1d633ef4840317085787b05	24	F	habit	2021-11-01T14:37:40.68501	1	1	20211025v3-longertrials	alien	115	Lf100Uc100Rc100	f	100	c	100	c	100	true	350	right	100	1	left	100	2	393429.031	394478.583	394828.215	395078.077	100	close	TRUE	devalue	first20	first100
ab8b7b5df1d633ef4840317085787b05	24	F	habit	2021-11-01T14:37:40.68501	1	1	20211025v3-longertrials	alien	116	Lf100Uc100Rc100	f	100	c	100	c	100	true	234	right	100	1	up	100	1	395378.123	396410.821	396644.381	396894.105	100	close	TRUE	devalue	first20	first50
ab8b7b5df1d633ef4840317085787b05	24	F	habit	2021-11-01T14:37:40.68501	1	1	20211025v3-longertrials	alien	117	Lf100Uc100Rc100	f	100	c	100	c	100	true	283	right	100	1	up	100	1	397144.03	398160.221	398443.443	398643.278	100	close	TRUE	devalue	first20	first50
ab8b7b5df1d633ef4840317085787b05	24	F	habit	2021-11-01T14:37:40.68501	1	1	20211025v3-longertrials	alien	118	Lf100Uc100Rc100	f	100	c	100	c	100	true	283	right	100	1	up	100	1	398893.018	399942.728	400225.702	400442.5	100	close	TRUE	devalue	first20	first50
ab8b7b5df1d633ef4840317085787b05	24	F	habit	2021-11-01T14:37:40.68501	1	1	20211025v3-longertrials	alien	119	Lf100Uc100Rc100	f	100	c	100	c	100	true	283	right	100	1	left	100	2	400692.175	401708.617	401991.867	402224.915	100	close	TRUE	devalue	first20	first100
ab8b7b5df1d633ef4840317085787b05	24	F	habit	2021-11-01T14:37:40.68501	1	1	20211025v3-longertrials	alien	120	Lf100Uc100Rc100	f	100	c	100	c	100	true	550	up	100	1	left	100	2	402474.701	403524.503	404074.036	404257.297	100	close	TRUE	devalue	first50	first100
ab8b7b5df1d633ef4840317085787b05	24	F	habit	2021-11-01T14:37:40.68501	1	1	20211025v3-longertrials	alien	121	Lf100Uc100Rc100	f	100	c	100	c	100	true	400	up	100	1	left	100	2	404507.106	405523.577	405923.173	406189.671	100	close	TRUE	devalue	first50	first100
ab8b7b5df1d633ef4840317085787b05	24	F	habit	2021-11-01T14:37:40.68501	1	1	20211025v3-longertrials	alien	122	Lf100Uc100Rc100	f	100	c	100	c	100	true	233	right	100	1	left	100	2	406422.875	407472.584	407705.688	407938.915	100	close	TRUE	devalue	first20	first100
ab8b7b5df1d633ef4840317085787b05	24	F	habit	2021-11-01T14:37:40.68501	1	1	20211025v3-longertrials	alien	123	Lf100Uc100Rc100	f	100	c	100	c	100	true	450	up	100	1	left	100	2	408205.475	409221.899	409671.607	409904.727	100	close	TRUE	devalue	first50	first100
be8b73f4ad09ef2c9fac105533afe536	30	F	habit	2021-10-29T19:56:26.816826	1	1	20211025v3-longertrials	alien	1	Lc20Uc50Rf100	c	20	c	50	f	100	true	600	left	20	1	right	100	2	124503.951	125553.909	126153.885	126437.207	20	close	FALSE	init	first20	first100
be8b73f4ad09ef2c9fac105533afe536	30	F	habit	2021-10-29T19:56:26.816826	1	1	20211025v3-longertrials	alien	2	Lc20Uc50Rf100	c	20	c	50	f	100	true	817	up	50	1	right	100	2	126753.861	127770.487	128587.121	128825.006	50	close	FALSE	init	first50	first100
be8b73f4ad09ef2c9fac105533afe536	30	F	habit	2021-10-29T19:56:26.816826	1	1	20211025v3-longertrials	alien	3	Lc20Uc50Rf100	c	20	c	50	f	100	false	583	left	20	1	right	100	2	129141.66	130191.618	130774.928	131058.25	20	close	FALSE	init	first20	first100
be8b73f4ad09ef2c9fac105533afe536	30	F	habit	2021-10-29T19:56:26.816826	1	1	20211025v3-longertrials	alien	4	Lc20Uc50Rf100	c	20	c	50	f	100	true	583	right	100	2	up	50	1	131408.236	132458.194	133041.504	133991.466	100	far	TRUE	init	first100	first50
be8b73f4ad09ef2c9fac105533afe536	30	F	habit	2021-10-29T19:56:26.816826	1	1	20211025v3-longertrials	alien	5	Lc20Uc50Rf100	c	20	c	50	f	100	false	633	left	20	1	right	100	2	134908.096	135941.388	136574.696	136874.684	20	close	FALSE	init	first20	first100
be8b73f4ad09ef2c9fac105533afe536	30	F	habit	2021-10-29T19:56:26.816826	1	1	20211025v3-longertrials	alien	6	Lc20Uc50Rf100	c	20	c	50	f	100	true	767	right	100	2	left	20	1	137158.006	138174.632	138941.268	139899.032	100	far	TRUE	init	first100	first20
be8b73f4ad09ef2c9fac105533afe536	30	F	habit	2021-10-29T19:56:26.816826	1	1	20211025v3-longertrials	alien	7	Lc20Uc50Rf100	c	20	c	50	f	100	false	767	up	50	1	right	100	2	140932.324	141965.616	142732.252	143032.24	50	close	FALSE	init	first50	first100
be8b73f4ad09ef2c9fac105533afe536	30	F	habit	2021-10-29T19:56:26.816826	1	1	20211025v3-longertrials	alien	8	Lc20Uc50Rf100	c	20	c	50	f	100	true	500	right	100	2	left	20	1	143332.228	144382.186	144882.166	145865.46	100	far	TRUE	init	first100	first20
be8b73f4ad09ef2c9fac105533afe536	30	F	habit	2021-10-29T19:56:26.816826	1	1	20211025v3-longertrials	alien	9	Lc20Uc50Rf100	c	20	c	50	f	100	true	717	right	100	2	left	20	1	146882.086	147932.044	148648.682	149588.1	100	far	TRUE	init	first100	first20
be8b73f4ad09ef2c9fac105533afe536	30	F	habit	2021-10-29T19:56:26.816826	1	1	20211025v3-longertrials	alien	10	Lc20Uc50Rf100	c	20	c	50	f	100	false	1050	left	20	1	right	100	2	150588.06	151604.686	152654.644	152937.966	20	close	FALSE	init	first20	first100
be8b73f4ad09ef2c9fac105533afe536	30	F	habit	2021-10-29T19:56:26.816826	1	1	20211025v3-longertrials	alien	11	Lc20Uc50Rf100	c	20	c	50	f	100	true	400	right	100	2	left	20	1	153271.286	154304.578	154704.562	155687.856	100	far	TRUE	init	first100	first20
be8b73f4ad09ef2c9fac105533afe536	30	F	habit	2021-10-29T19:56:26.816826	1	1	20211025v3-longertrials	alien	12	Lc20Uc50Rf100	c	20	c	50	f	100	true	633	right	100	2	left	20	1	156754.48	157771.106	158404.414	159351.587	100	far	TRUE	init	first100	first20
be8b73f4ad09ef2c9fac105533afe536	30	F	habit	2021-10-29T19:56:26.816826	1	1	20211025v3-longertrials	alien	13	Lc20Uc50Rf100	c	20	c	50	f	100	false	883	up	50	1	left	20	1	160401.545	161451.503	162334.801	162601.457	50	close	TRUE	init	first50	first20
be8b73f4ad09ef2c9fac105533afe536	30	F	habit	2021-10-29T19:56:26.816826	1	1	20211025v3-longertrials	alien	14	Lc20Uc50Rf100	c	20	c	50	f	100	true	617	right	100	2	up	50	1	162818.115	163868.073	164484.715	165501.341	100	far	TRUE	init	first100	first50
be8b73f4ad09ef2c9fac105533afe536	30	F	habit	2021-10-29T19:56:26.816826	1	1	20211025v3-longertrials	alien	15	Lc20Uc50Rf100	c	20	c	50	f	100	false	917	up	50	1	left	20	1	166501.301	167517.927	168434.557	168651.215	50	close	TRUE	init	first50	first20
be8b73f4ad09ef2c9fac105533afe536	30	F	habit	2021-10-29T19:56:26.816826	1	1	20211025v3-longertrials	alien	16	Lc20Uc50Rf100	c	20	c	50	f	100	true	683	right	100	2	up	50	1	168967.869	169995.788	170679.094	171679.054	100	far	TRUE	init	first100	first50
be8b73f4ad09ef2c9fac105533afe536	30	F	habit	2021-10-29T19:56:26.816826	1	1	20211025v3-longertrials	alien	17	Lc20Uc50Rf100	c	20	c	50	f	100	false	567	left	20	1	up	50	1	172612.35	173628.976	174195.62	174462.276	20	close	FALSE	init	first20	first50
be8b73f4ad09ef2c9fac105533afe536	30	F	habit	2021-10-29T19:56:26.816826	1	1	20211025v3-longertrials	alien	18	Lc20Uc50Rf100	c	20	c	50	f	100	true	683	right	100	2	left	20	1	174778.93	175795.556	176478.862	177412.158	100	far	TRUE	init	first100	first20
be8b73f4ad09ef2c9fac105533afe536	30	F	habit	2021-10-29T19:56:26.816826	1	1	20211025v3-longertrials	alien	19	Lc20Uc50Rf100	c	20	c	50	f	100	false	930	left	20	1	up	50	1	178395.452	179412.078	180342.035	180575.359	20	close	FALSE	init	first20	first50
be8b73f4ad09ef2c9fac105533afe536	30	F	habit	2021-10-29T19:56:26.816826	1	1	20211025v3-longertrials	alien	20	Lc20Uc50Rf100	c	20	c	50	f	100	true	483	right	100	2	up	50	1	180908.679	181958.637	182441.951	183358.581	100	far	TRUE	init	first100	first50
be8b73f4ad09ef2c9fac105533afe536	30	F	habit	2021-10-29T19:56:26.816826	1	1	20211025v3-longertrials	alien	21	Lc20Uc50Rf100	c	20	c	50	f	100	true	667	right	100	2	left	20	1	184308.543	185358.501	186025.141	186925.105	100	far	TRUE	init	first100	first20
be8b73f4ad09ef2c9fac105533afe536	30	F	habit	2021-10-29T19:56:26.816826	1	1	20211025v3-longertrials	alien	22	Lc20Uc50Rf100	c	20	c	50	f	100	false	783	up	50	1	left	20	1	187891.733	188908.359	189691.661	189988.305	50	close	TRUE	init	first50	first20
be8b73f4ad09ef2c9fac105533afe536	30	F	habit	2021-10-29T19:56:26.816826	1	1	20211025v3-longertrials	alien	23	Lc20Uc50Rf100	c	20	c	50	f	100	true	500	right	100	2	up	50	1	190254.961	191304.919	191804.899	192754.861	100	far	TRUE	init	first100	first50
be8b73f4ad09ef2c9fac105533afe536	30	F	habit	2021-10-29T19:56:26.816826	1	1	20211025v3-longertrials	alien	24	Lc20Uc50Rf100	c	20	c	50	f	100	true	750	right	100	2	left	20	1	193788.153	194804.779	195554.749	196588.041	100	far	TRUE	init	first100	first20
be8b73f4ad09ef2c9fac105533afe536	30	F	habit	2021-10-29T19:56:26.816826	1	1	20211025v3-longertrials	alien	25	Lc20Uc50Rf100	c	20	c	50	f	100	true	667	right	100	2	up	50	1	197637.999	198654.625	199321.265	200281.201	100	far	TRUE	init	first100	first50
be8b73f4ad09ef2c9fac105533afe536	30	F	habit	2021-10-29T19:56:26.816826	1	1	20211025v3-longertrials	alien	26	Lc20Uc50Rf100	c	20	c	50	f	100	true	833	up	50	1	left	20	1	201264.495	202281.121	203114.421	203414.409	50	close	TRUE	init	first50	first20
be8b73f4ad09ef2c9fac105533afe536	30	F	habit	2021-10-29T19:56:26.816826	1	1	20211025v3-longertrials	alien	27	Lc20Uc50Rf100	c	20	c	50	f	100	true	550	up	50	1	left	20	1	203647.733	204681.025	205231.003	205497.659	50	close	TRUE	init	first50	first20
be8b73f4ad09ef2c9fac105533afe536	30	F	habit	2021-10-29T19:56:26.816826	1	1	20211025v3-longertrials	alien	28	Lc20Uc50Rf100	c	20	c	50	f	100	false	667	up	50	1	left	20	1	205764.315	206797.607	207464.247	207697.571	50	close	TRUE	init	first50	first20
be8b73f4ad09ef2c9fac105533afe536	30	F	habit	2021-10-29T19:56:26.816826	1	1	20211025v3-longertrials	alien	29	Lc20Uc50Rf100	c	20	c	50	f	100	false	483	left	20	1	up	50	1	207997.559	209014.185	209497.499	209780.821	20	close	FALSE	init	first20	first50
be8b73f4ad09ef2c9fac105533afe536	30	F	habit	2021-10-29T19:56:26.816826	1	1	20211025v3-longertrials	alien	30	Lc20Uc50Rf100	c	20	c	50	f	100	true	600	up	50	1	left	20	1	210108.125	211124.751	211724.727	212008.049	50	close	TRUE	init	first50	first20
be8b73f4ad09ef2c9fac105533afe536	30	F	habit	2021-10-29T19:56:26.816826	1	1	20211025v3-longertrials	alien	31	Lc20Uc50Rf100	c	20	c	50	f	100	true	450	up	50	1	left	20	1	212308.037	213357.995	213807.977	214107.965	50	close	TRUE	init	first50	first20
be8b73f4ad09ef2c9fac105533afe536	30	F	habit	2021-10-29T19:56:26.816826	1	1	20211025v3-longertrials	alien	32	Lc20Uc50Rf100	c	20	c	50	f	100	false	583	up	50	1	left	20	1	214324.623	215374.581	215957.891	216257.879	50	close	TRUE	init	first50	first20
be8b73f4ad09ef2c9fac105533afe536	30	F	habit	2021-10-29T19:56:26.816826	1	1	20211025v3-longertrials	alien	33	Lc20Uc50Rf100	c	20	c	50	f	100	true	517	right	100	2	up	50	1	216457.871	217474.497	217991.143	218941.105	100	far	TRUE	init	first100	first50
be8b73f4ad09ef2c9fac105533afe536	30	F	habit	2021-10-29T19:56:26.816826	1	1	20211025v3-longertrials	alien	34	Lc20Uc50Rf100	c	20	c	50	f	100	true	650	up	50	1	left	20	1	219949.315	220999.273	221649.247	221882.571	50	close	TRUE	init	first50	first20
be8b73f4ad09ef2c9fac105533afe536	30	F	habit	2021-10-29T19:56:26.816826	1	1	20211025v3-longertrials	alien	35	Lc20Uc50Rf100	c	20	c	50	f	100	true	417	right	100	2	left	20	1	222149.227	223182.519	223599.169	224532.465	100	far	TRUE	init	first100	first20
be8b73f4ad09ef2c9fac105533afe536	30	F	habit	2021-10-29T19:56:26.816826	1	1	20211025v3-longertrials	alien	36	Lc20Uc50Rf100	c	20	c	50	f	100	true	600	left	20	1	right	100	2	225432.429	226465.721	227065.697	227299.021	20	close	FALSE	init	first20	first100
be8b73f4ad09ef2c9fac105533afe536	30	F	habit	2021-10-29T19:56:26.816826	1	1	20211025v3-longertrials	alien	37	Lc20Uc50Rf100	c	20	c	50	f	100	true	433	right	100	2	up	50	1	227549.011	228598.969	229032.285	229882.251	100	far	TRUE	init	first100	first50
be8b73f4ad09ef2c9fac105533afe536	30	F	habit	2021-10-29T19:56:26.816826	1	1	20211025v3-longertrials	alien	38	Lc20Uc50Rf100	c	20	c	50	f	100	true	533	right	100	2	up	50	1	230819.723	231869.681	232402.993	233252.959	100	far	TRUE	init	first100	first50
be8b73f4ad09ef2c9fac105533afe536	30	F	habit	2021-10-29T19:56:26.816826	1	1	20211025v3-longertrials	alien	39	Lc20Uc50Rf100	c	20	c	50	f	100	true	417	right	100	2	left	20	1	234269.585	235302.877	235719.527	236569.493	100	far	TRUE	init	first100	first20
be8b73f4ad09ef2c9fac105533afe536	30	F	habit	2021-10-29T19:56:26.816826	1	1	20211025v3-longertrials	alien	40	Lc20Uc50Rf100	c	20	c	50	f	100	false	583	left	20	1	up	50	1	237552.787	238586.079	239169.389	239469.377	20	close	FALSE	init	first20	first50
be8b73f4ad09ef2c9fac105533afe536	30	F	habit	2021-10-29T19:56:26.816826	1	1	20211025v3-longertrials	alien	41	Lc20Uc50Rf100	c	20	c	50	f	100	true	700	right	100	2	up	50	1	239769.365	240779.914	241479.886	242463.18	100	far	TRUE	init	first100	first50
be8b73f4ad09ef2c9fac105533afe536	30	F	habit	2021-10-29T19:56:26.816826	1	1	20211025v3-longertrials	alien	42	Lc20Uc50Rf100	c	20	c	50	f	100	true	583	right	100	2	up	50	1	243513.138	244529.764	245113.074	246113.034	100	far	TRUE	init	first100	first50
be8b73f4ad09ef2c9fac105533afe536	30	F	habit	2021-10-29T19:56:26.816826	1	1	20211025v3-longertrials	alien	43	Lc20Uc50Rf100	c	20	c	50	f	100	true	567	right	100	2	left	20	1	247079.662	248129.62	248696.264	249596.228	100	far	TRUE	init	first100	first20
be8b73f4ad09ef2c9fac105533afe536	30	F	habit	2021-10-29T19:56:26.816826	1	1	20211025v3-longertrials	alien	44	Lc20Uc50Rf100	c	20	c	50	f	100	true	467	right	100	2	up	50	1	250579.777	251613.069	252079.717	252979.681	100	far	TRUE	init	first100	first50
be8b73f4ad09ef2c9fac105533afe536	30	F	habit	2021-10-29T19:56:26.816826	1	1	20211025v3-longertrials	alien	45	Lc20Uc50Rf100	c	20	c	50	f	100	true	683	up	50	1	left	20	1	253979.641	254996.267	255679.573	255929.563	50	close	TRUE	init	first50	first20
be8b73f4ad09ef2c9fac105533afe536	30	F	habit	2021-10-29T19:56:26.816826	1	1	20211025v3-longertrials	alien	46	Lc20Uc50Rf100	c	20	c	50	f	100	true	550	right	100	2	up	50	1	256229.551	257246.177	257796.155	258696.119	100	far	TRUE	init	first100	first50
be8b73f4ad09ef2c9fac105533afe536	30	F	habit	2021-10-29T19:56:26.816826	1	1	20211025v3-longertrials	alien	47	Lc20Uc50Rf100	c	20	c	50	f	100	true	467	up	50	1	right	100	2	259612.749	260662.707	261129.355	261424.102	50	close	FALSE	init	first50	first100
be8b73f4ad09ef2c9fac105533afe536	30	F	habit	2021-10-29T19:56:26.816826	1	1	20211025v3-longertrials	alien	48	Lc20Uc50Rf100	c	20	c	50	f	100	true	850	left	20	1	up	50	1	261724.09	262740.716	263590.682	263857.338	20	close	FALSE	init	first20	first50
be8b73f4ad09ef2c9fac105533afe536	30	F	habit	2021-10-29T19:56:26.816826	1	1	20211025v3-longertrials	alien	49	Lc20Uc50Rf100	c	20	c	50	f	100	true	517	up	20	1	right	100	2	264157.326	265173.952	265690.598	265990.586	50	close	FALSE	init	first50	first100
be8b73f4ad09ef2c9fac105533afe536	30	F	habit	2021-10-29T19:56:26.816826	1	1	20211025v3-longertrials	alien	50	Lc50Uc20Rf100	c	50	c	20	f	100	true	617	left	50	1	up	20	1	266290.574	267340.532	267957.174	268273.828	50	close	TRUE	switch	first20	first50
be8b73f4ad09ef2c9fac105533afe536	30	F	habit	2021-10-29T19:56:26.816826	1	1	20211025v3-longertrials	alien	51	Lc50Uc20Rf100	c	50	c	20	f	100	false	483	up	20	1	right	100	2	268607.148	269623.774	270107.088	270340.412	20	close	FALSE	switch	first50	first100
be8b73f4ad09ef2c9fac105533afe536	30	F	habit	2021-10-29T19:56:26.816826	1	1	20211025v3-longertrials	alien	52	Lc50Uc20Rf100	c	50	c	20	f	100	true	433	right	100	2	left	50	1	270607.068	271655.012	272088.328	273038.29	100	far	TRUE	switch	first100	first20
be8b73f4ad09ef2c9fac105533afe536	30	F	habit	2021-10-29T19:56:26.816826	1	1	20211025v3-longertrials	alien	53	Lc50Uc20Rf100	c	50	c	20	f	100	true	650	left	50	1	up	20	1	274054.916	275071.542	275721.516	275938.174	50	close	TRUE	switch	first20	first50
be8b73f4ad09ef2c9fac105533afe536	30	F	habit	2021-10-29T19:56:26.816826	1	1	20211025v3-longertrials	alien	54	Lc50Uc20Rf100	c	50	c	20	f	100	true	433	right	100	2	up	20	1	276288.16	277338.118	277771.434	278721.396	100	far	TRUE	switch	first100	first50
be8b73f4ad09ef2c9fac105533afe536	30	F	habit	2021-10-29T19:56:26.816826	1	1	20211025v3-longertrials	alien	55	Lc50Uc20Rf100	c	50	c	20	f	100	false	533	left	50	1	up	20	1	279738.022	280754.648	281287.96	281566.683	50	close	TRUE	switch	first20	first50
be8b73f4ad09ef2c9fac105533afe536	30	F	habit	2021-10-29T19:56:26.816826	1	1	20211025v3-longertrials	alien	56	Lc50Uc20Rf100	c	50	c	20	f	100	false	567	up	20	1	right	100	2	281866.671	282883.297	283449.941	283733.263	20	close	FALSE	switch	first50	first100
be8b73f4ad09ef2c9fac105533afe536	30	F	habit	2021-10-29T19:56:26.816826	1	1	20211025v3-longertrials	alien	57	Lc50Uc20Rf100	c	50	c	20	f	100	true	467	right	100	2	up	20	1	283983.253	285033.211	285499.859	286483.153	100	far	TRUE	switch	first100	first50
be8b73f4ad09ef2c9fac105533afe536	30	F	habit	2021-10-29T19:56:26.816826	1	1	20211025v3-longertrials	alien	58	Lc50Uc20Rf100	c	50	c	20	f	100	true	433	right	100	2	up	20	1	287466.447	288516.405	288949.721	289866.351	100	far	TRUE	switch	first100	first50
be8b73f4ad09ef2c9fac105533afe536	30	F	habit	2021-10-29T19:56:26.816826	1	1	20211025v3-longertrials	alien	59	Lc50Uc20Rf100	c	50	c	20	f	100	true	867	right	100	2	up	20	1	290832.979	291841.95	292708.582	293641.878	100	far	TRUE	switch	first100	first50
be8b73f4ad09ef2c9fac105533afe536	30	F	habit	2021-10-29T19:56:26.816826	1	1	20211025v3-longertrials	alien	60	Lc50Uc20Rf100	c	50	c	20	f	100	true	967	right	100	2	left	50	1	294541.842	295591.8	296558.428	297508.39	100	far	TRUE	switch	first100	first20
be8b73f4ad09ef2c9fac105533afe536	30	F	habit	2021-10-29T19:56:26.816826	1	1	20211025v3-longertrials	alien	61	Lc50Uc20Rf100	c	50	c	20	f	100	true	1017	up	20	1	left	50	1	298491.684	299541.642	300558.268	300824.924	20	close	FALSE	switch	first50	first20
be8b73f4ad09ef2c9fac105533afe536	30	F	habit	2021-10-29T19:56:26.816826	1	1	20211025v3-longertrials	alien	62	Lc50Uc20Rf100	c	50	c	20	f	100	true	567	up	20	1	left	50	1	301111.814	302161.772	302728.416	303011.738	20	close	FALSE	switch	first50	first20
be8b73f4ad09ef2c9fac105533afe536	30	F	habit	2021-10-29T19:56:26.816826	1	1	20211025v3-longertrials	alien	63	Lc50Uc20Rf100	c	50	c	20	f	100	false	767	left	50	1	right	100	2	303278.394	304295.02	305061.656	305311.646	50	close	FALSE	switch	first20	first100
be8b73f4ad09ef2c9fac105533afe536	30	F	habit	2021-10-29T19:56:26.816826	1	1	20211025v3-longertrials	alien	64	Lc50Uc20Rf100	c	50	c	20	f	100	true	467	right	100	2	left	50	1	305628.3	306694.924	307161.572	308044.87	100	far	TRUE	switch	first100	first20
be8b73f4ad09ef2c9fac105533afe536	30	F	habit	2021-10-29T19:56:26.816826	1	1	20211025v3-longertrials	alien	65	Lc50Uc20Rf100	c	50	c	20	f	100	true	450	right	100	2	left	50	1	308994.832	310028.124	310478.106	311392.603	100	far	TRUE	switch	first100	first20
be8b73f4ad09ef2c9fac105533afe536	30	F	habit	2021-10-29T19:56:26.816826	1	1	20211025v3-longertrials	alien	66	Lc50Uc20Rf100	c	50	c	20	f	100	true	500	right	100	2	left	50	1	312409.229	313442.521	313942.501	314925.795	100	far	TRUE	switch	first100	first20
be8b73f4ad09ef2c9fac105533afe536	30	F	habit	2021-10-29T19:56:26.816826	1	1	20211025v3-longertrials	alien	67	Lc50Uc20Rf100	c	50	c	20	f	100	true	433	right	100	2	up	20	1	315942.421	316959.047	317392.363	318425.655	100	far	TRUE	switch	first100	first50
be8b73f4ad09ef2c9fac105533afe536	30	F	habit	2021-10-29T19:56:26.816826	1	1	20211025v3-longertrials	alien	68	Lc50Uc20Rf100	c	50	c	20	f	100	false	1004	up	20	1	left	50	1	319408.949	320442.241	321445.867	321729.189	20	close	FALSE	switch	first50	first20
be8b73f4ad09ef2c9fac105533afe536	30	F	habit	2021-10-29T19:56:26.816826	1	1	20211025v3-longertrials	alien	69	Lc50Uc20Rf100	c	50	c	20	f	100	true	617	left	50	1	up	20	1	321995.845	323012.471	323629.113	323912.435	50	close	TRUE	switch	first20	first50
be8b73f4ad09ef2c9fac105533afe536	30	F	habit	2021-10-29T19:56:26.816826	1	1	20211025v3-longertrials	alien	70	Lc50Uc20Rf100	c	50	c	20	f	100	true	533	right	100	2	left	50	1	324262.421	325279.047	325812.359	326762.321	100	far	TRUE	switch	first100	first20
be8b73f4ad09ef2c9fac105533afe536	30	F	habit	2021-10-29T19:56:26.816826	1	1	20211025v3-longertrials	alien	71	Lc50Uc20Rf100	c	50	c	20	f	100	false	683	left	50	1	up	20	1	327778.947	328812.239	329495.545	329762.201	50	close	TRUE	switch	first20	first50
be8b73f4ad09ef2c9fac105533afe536	30	F	habit	2021-10-29T19:56:26.816826	1	1	20211025v3-longertrials	alien	72	Lc50Uc20Rf100	c	50	c	20	f	100	true	567	up	20	1	right	100	2	330095.521	331112.147	331678.791	331938.919	20	close	FALSE	switch	first50	first100
be8b73f4ad09ef2c9fac105533afe536	30	F	habit	2021-10-29T19:56:26.816826	1	1	20211025v3-longertrials	alien	73	Lc50Uc20Rf100	c	50	c	20	f	100	false	700	up	20	1	left	50	1	332205.575	333255.533	333955.505	334222.161	20	close	FALSE	switch	first50	first20
be8b73f4ad09ef2c9fac105533afe536	30	F	habit	2021-10-29T19:56:26.816826	1	1	20211025v3-longertrials	alien	74	Lc50Uc20Rf100	c	50	c	20	f	100	true	483	right	100	2	up	20	1	334472.151	335505.443	335988.757	336922.053	100	far	TRUE	switch	first100	first50
be8b73f4ad09ef2c9fac105533afe536	30	F	habit	2021-10-29T19:56:26.816826	1	1	20211025v3-longertrials	alien	75	Lc50Uc20Rf100	c	50	c	20	f	100	true	583	right	100	2	left	50	1	337955.345	338988.637	339571.947	340438.579	100	far	TRUE	switch	first100	first20
be8b73f4ad09ef2c9fac105533afe536	30	F	habit	2021-10-29T19:56:26.816826	1	1	20211025v3-longertrials	alien	76	Lc50Uc20Rf100	c	50	c	20	f	100	true	533	right	100	2	left	50	1	341405.207	342421.833	342955.145	343816.114	100	far	TRUE	switch	first100	first20
be8b73f4ad09ef2c9fac105533afe536	30	F	habit	2021-10-29T19:56:26.816826	1	1	20211025v3-longertrials	alien	77	Lc50Uc20Rf100	c	50	c	20	f	100	true	617	right	100	2	left	50	1	344849.406	345866.032	346482.674	347349.306	100	far	TRUE	switch	first100	first20
be8b73f4ad09ef2c9fac105533afe536	30	F	habit	2021-10-29T19:56:26.816826	1	1	20211025v3-longertrials	alien	78	Lc50Uc20Rf100	c	50	c	20	f	100	true	483	right	100	2	left	50	1	348415.93	349432.556	349915.87	350882.498	100	far	TRUE	switch	first100	first20
be8b73f4ad09ef2c9fac105533afe536	30	F	habit	2021-10-29T19:56:26.816826	1	1	20211025v3-longertrials	alien	79	Lc50Uc20Rf100	c	50	c	20	f	100	true	683	up	20	1	left	50	1	351882.458	352899.084	353582.39	353833.254	20	close	FALSE	switch	first50	first20
be8b73f4ad09ef2c9fac105533afe536	30	F	habit	2021-10-29T19:56:26.816826	1	1	20211025v3-longertrials	alien	80	Lc50Uc20Rf100	c	50	c	20	f	100	true	650	right	100	2	up	20	1	354133.242	355149.868	355799.842	356766.47	100	far	TRUE	switch	first100	first50
be8b73f4ad09ef2c9fac105533afe536	30	F	habit	2021-10-29T19:56:26.816826	1	1	20211025v3-longertrials	alien	81	Lc50Uc20Rf100	c	50	c	20	f	100	true	767	left	50	1	right	100	2	357816.428	358833.054	359599.69	359866.346	50	close	FALSE	switch	first20	first100
be8b73f4ad09ef2c9fac105533afe536	30	F	habit	2021-10-29T19:56:26.816826	1	1	20211025v3-longertrials	alien	82	Lc50Uc20Rf100	c	50	c	20	f	100	true	583	right	100	2	left	50	1	360183	361199.626	361782.936	362649.568	100	far	TRUE	switch	first100	first20
be8b73f4ad09ef2c9fac105533afe536	30	F	habit	2021-10-29T19:56:26.816826	1	1	20211025v3-longertrials	alien	83	Lc50Uc20Rf100	c	50	c	20	f	100	false	1017	up	20	1	left	50	1	363687.493	364704.119	365720.745	365987.401	20	close	FALSE	switch	first50	first20
be8b73f4ad09ef2c9fac105533afe536	30	F	habit	2021-10-29T19:56:26.816826	1	1	20211025v3-longertrials	alien	84	Lc50Uc20Rf100	c	50	c	20	f	100	true	1050	left	50	1	up	20	1	366270.723	367320.681	368370.639	368670.627	50	close	TRUE	switch	first20	first50
be8b73f4ad09ef2c9fac105533afe536	30	F	habit	2021-10-29T19:56:26.816826	1	1	20211025v3-longertrials	alien	85	Lc50Uc20Rf100	c	50	c	20	f	100	true	717	right	100	2	up	20	1	369020.613	370053.905	370770.543	371720.505	100	far	TRUE	switch	first100	first50
be8b73f4ad09ef2c9fac105533afe536	30	F	habit	2021-10-29T19:56:26.816826	1	1	20211025v3-longertrials	alien	86	Lc50Uc20Rf100	c	50	c	20	f	100	true	800	right	100	2	left	50	1	372737.131	373753.757	374553.725	375502.125	100	far	TRUE	switch	first100	first20
be8b73f4ad09ef2c9fac105533afe536	30	F	habit	2021-10-29T19:56:26.816826	1	1	20211025v3-longertrials	alien	87	Lc50Uc20Rf100	c	50	c	20	f	100	true	433	right	100	2	up	20	1	376485.419	377502.045	377935.361	378901.989	100	far	TRUE	switch	first100	first50
be8b73f4ad09ef2c9fac105533afe536	30	F	habit	2021-10-29T19:56:26.816826	1	1	20211025v3-longertrials	alien	88	Lc50Uc20Rf100	c	50	c	20	f	100	false	817	left	50	1	up	20	1	379885.283	380918.575	381735.209	382035.197	50	close	TRUE	switch	first20	first50
be8b73f4ad09ef2c9fac105533afe536	30	F	habit	2021-10-29T19:56:26.816826	1	1	20211025v3-longertrials	alien	89	Lc50Uc20Rf100	c	50	c	20	f	100	true	717	right	100	2	left	50	1	382385.183	383401.809	384118.447	385028.535	100	far	TRUE	switch	first100	first20
be8b73f4ad09ef2c9fac105533afe536	30	F	habit	2021-10-29T19:56:26.816826	1	1	20211025v3-longertrials	alien	90	Lc50Uc20Rf100	c	50	c	20	f	100	false	633	up	20	1	left	50	1	385995.163	387011.789	387645.097	387945.085	20	close	FALSE	switch	first50	first20
be8b73f4ad09ef2c9fac105533afe536	30	F	habit	2021-10-29T19:56:26.816826	1	1	20211025v3-longertrials	alien	91	Lc50Uc20Rf100	c	50	c	20	f	100	true	467	right	100	2	up	20	1	388211.741	389261.699	389728.347	390644.977	100	far	TRUE	switch	first100	first50
be8b73f4ad09ef2c9fac105533afe536	30	F	habit	2021-10-29T19:56:26.816826	1	1	20211025v3-longertrials	alien	92	Lc50Uc20Rf100	c	50	c	20	f	100	true	1100	left	50	1	up	20	1	391661.603	392694.895	393794.851	394044.841	50	close	TRUE	switch	first20	first50
be8b73f4ad09ef2c9fac105533afe536	30	F	habit	2021-10-29T19:56:26.816826	1	1	20211025v3-longertrials	alien	93	Lc50Uc20Rf100	c	50	c	20	f	100	true	717	right	100	2	left	50	1	394341.316	395374.608	396091.246	396957.878	100	far	TRUE	switch	first100	first20
be8b73f4ad09ef2c9fac105533afe536	30	F	habit	2021-10-29T19:56:26.816826	1	1	20211025v3-longertrials	alien	94	Lc50Uc20Rf100	c	50	c	20	f	100	false	550	up	20	1	right	100	2	397924.506	398941.132	399491.11	399774.432	20	close	FALSE	switch	first50	first100
be8b73f4ad09ef2c9fac105533afe536	30	F	habit	2021-10-29T19:56:26.816826	1	1	20211025v3-longertrials	alien	95	Lc50Uc20Rf100	c	50	c	20	f	100	true	900	up	20	1	left	50	1	400057.754	401074.38	401974.344	402274.332	20	close	FALSE	switch	first50	first20
be8b73f4ad09ef2c9fac105533afe536	30	F	habit	2021-10-29T19:56:26.816826	1	1	20211025v3-longertrials	alien	96	Lc50Uc20Rf100	c	50	c	20	f	100	true	550	right	100	2	up	20	1	402574.32	403607.612	404157.59	405049.381	100	far	TRUE	switch	first100	first50
be8b73f4ad09ef2c9fac105533afe536	30	F	habit	2021-10-29T19:56:26.816826	1	1	20211025v3-longertrials	alien	97	Lc50Uc20Rf100	c	50	c	20	f	100	true	667	up	100	1	left	100	1	406049.341	407099.299	407765.939	408032.595	20	close	TRUE	switch	first50	first20
be8b73f4ad09ef2c9fac105533afe536	30	F	habit	2021-10-29T19:56:26.816826	1	1	20211025v3-longertrials	alien	98	Lc100Uc100Rf100	c	100	c	100	f	100	true	783	up	100	1	left	100	1	408265.919	409282.545	410065.847	410265.839	100	close	TRUE	devalue	first50	first20
be8b73f4ad09ef2c9fac105533afe536	30	F	habit	2021-10-29T19:56:26.816826	1	1	20211025v3-longertrials	alien	99	Lc100Uc100Rf100	c	100	c	100	f	100	true	567	up	100	1	left	100	1	410582.493	411599.119	412165.763	412482.417	100	close	TRUE	devalue	first50	first20
be8b73f4ad09ef2c9fac105533afe536	30	F	habit	2021-10-29T19:56:26.816826	1	1	20211025v3-longertrials	alien	100	Lc100Uc100Rf100	c	100	c	100	f	100	true	617	up	100	1	left	100	1	412765.739	413782.365	414399.007	414707.962	100	close	TRUE	devalue	first50	first20
be8b73f4ad09ef2c9fac105533afe536	30	F	habit	2021-10-29T19:56:26.816826	1	1	20211025v3-longertrials	alien	101	Lc100Uc100Rf100	c	100	c	100	f	100	true	467	up	100	1	left	100	1	414991.284	416041.242	416507.89	416791.212	100	close	TRUE	devalue	first50	first20
be8b73f4ad09ef2c9fac105533afe536	30	F	habit	2021-10-29T19:56:26.816826	1	1	20211025v3-longertrials	alien	102	Lc100Uc100Rf100	c	100	c	100	f	100	true	467	up	100	1	right	100	2	417057.868	418107.826	418574.474	418874.462	100	close	TRUE	devalue	first50	first100
be8b73f4ad09ef2c9fac105533afe536	30	F	habit	2021-10-29T19:56:26.816826	1	1	20211025v3-longertrials	alien	103	Lc100Uc100Rf100	c	100	c	100	f	100	true	617	right	100	2	left	100	1	419174.45	420224.408	420841.05	421724.348	100	far	FALSE	devalue	first100	first20
be8b73f4ad09ef2c9fac105533afe536	30	F	habit	2021-10-29T19:56:26.816826	1	1	20211025v3-longertrials	alien	104	Lc100Uc100Rf100	c	100	c	100	f	100	true	600	right	100	2	left	100	1	422790.972	423807.598	424407.574	425354.303	100	far	FALSE	devalue	first100	first20
be8b73f4ad09ef2c9fac105533afe536	30	F	habit	2021-10-29T19:56:26.816826	1	1	20211025v3-longertrials	alien	105	Lc100Uc100Rf100	c	100	c	100	f	100	true	600	right	100	2	left	100	1	426337.597	427387.555	427987.531	428920.827	100	far	FALSE	devalue	first100	first20
be8b73f4ad09ef2c9fac105533afe536	30	F	habit	2021-10-29T19:56:26.816826	1	1	20211025v3-longertrials	alien	106	Lc100Uc100Rf100	c	100	c	100	f	100	true	767	right	100	2	up	100	1	429887.455	430920.747	431687.383	432537.349	100	far	FALSE	devalue	first100	first50
be8b73f4ad09ef2c9fac105533afe536	30	F	habit	2021-10-29T19:56:26.816826	1	1	20211025v3-longertrials	alien	107	Lc100Uc100Rf100	c	100	c	100	f	100	true	633	right	100	2	up	100	1	433537.309	434553.935	435187.243	436091.627	100	far	FALSE	devalue	first100	first50
be8b73f4ad09ef2c9fac105533afe536	30	F	habit	2021-10-29T19:56:26.816826	1	1	20211025v3-longertrials	alien	108	Lc100Uc100Rf100	c	100	c	100	f	100	true	700	up	100	1	left	100	1	437108.253	438158.211	438858.183	439108.173	100	close	TRUE	devalue	first50	first20
be8b73f4ad09ef2c9fac105533afe536	30	F	habit	2021-10-29T19:56:26.816826	1	1	20211025v3-longertrials	alien	109	Lc100Uc100Rf100	c	100	c	100	f	100	true	517	right	100	2	up	100	1	439391.495	440408.121	440924.767	441774.733	100	far	FALSE	devalue	first100	first50
be8b73f4ad09ef2c9fac105533afe536	30	F	habit	2021-10-29T19:56:26.816826	1	1	20211025v3-longertrials	alien	110	Lc100Uc100Rf100	c	100	c	100	f	100	true	700	up	100	1	left	100	1	442574.701	443607.993	444307.965	444574.621	100	close	TRUE	devalue	first50	first20
be8b73f4ad09ef2c9fac105533afe536	30	F	habit	2021-10-29T19:56:26.816826	1	1	20211025v3-longertrials	alien	111	Lc100Uc100Rf100	c	100	c	100	f	100	true	600	up	100	1	left	100	1	444844.198	445877.49	446477.466	446777.454	100	close	TRUE	devalue	first50	first20
be8b73f4ad09ef2c9fac105533afe536	30	F	habit	2021-10-29T19:56:26.816826	1	1	20211025v3-longertrials	alien	112	Lc100Uc100Rf100	c	100	c	100	f	100	true	467	right	100	2	left	100	1	447060.776	448077.402	448544.05	449494.012	100	far	FALSE	devalue	first100	first20
be8b73f4ad09ef2c9fac105533afe536	30	F	habit	2021-10-29T19:56:26.816826	1	1	20211025v3-longertrials	alien	113	Lc100Uc100Rf100	c	100	c	100	f	100	true	500	up	100	1	left	100	1	450577.302	451610.594	452110.574	452360.564	100	close	TRUE	devalue	first50	first20
be8b73f4ad09ef2c9fac105533afe536	30	F	habit	2021-10-29T19:56:26.816826	1	1	20211025v3-longertrials	alien	114	Lc100Uc100Rf100	c	100	c	100	f	100	true	783	up	100	1	left	100	1	452593.888	453627.18	454410.482	454693.804	100	close	TRUE	devalue	first50	first20
be8b73f4ad09ef2c9fac105533afe536	30	F	habit	2021-10-29T19:56:26.816826	1	1	20211025v3-longertrials	alien	115	Lc100Uc100Rf100	c	100	c	100	f	100	true	583	up	100	1	left	100	1	454973.059	456023.017	456606.327	456906.315	100	close	TRUE	devalue	first50	first20
be8b73f4ad09ef2c9fac105533afe536	30	F	habit	2021-10-29T19:56:26.816826	1	1	20211025v3-longertrials	alien	116	Lc100Uc100Rf100	c	100	c	100	f	100	true	550	right	100	2	left	100	1	457189.637	458206.263	458756.241	459756.201	100	far	FALSE	devalue	first100	first20
be8b73f4ad09ef2c9fac105533afe536	30	F	habit	2021-10-29T19:56:26.816826	1	1	20211025v3-longertrials	alien	117	Lc100Uc100Rf100	c	100	c	100	f	100	true	500	up	100	1	right	100	2	460772.827	461822.785	462322.765	462589.421	100	close	TRUE	devalue	first50	first100
be8b73f4ad09ef2c9fac105533afe536	30	F	habit	2021-10-29T19:56:26.816826	1	1	20211025v3-longertrials	alien	118	Lc100Uc100Rf100	c	100	c	100	f	100	true	467	right	100	2	left	100	1	462839.411	463889.369	464356.017	465366.363	100	far	FALSE	devalue	first100	first20
be8b73f4ad09ef2c9fac105533afe536	30	F	habit	2021-10-29T19:56:26.816826	1	1	20211025v3-longertrials	alien	119	Lc100Uc100Rf100	c	100	c	100	f	100	true	550	right	100	2	left	100	1	466382.989	467399.615	467949.593	468932.887	100	far	FALSE	devalue	first100	first20
be8b73f4ad09ef2c9fac105533afe536	30	F	habit	2021-10-29T19:56:26.816826	1	1	20211025v3-longertrials	alien	120	Lc100Uc100Rf100	c	100	c	100	f	100	true	733	right	100	2	left	100	1	469982.845	470999.471	471732.775	472616.073	100	far	FALSE	devalue	first100	first20
be8b73f4ad09ef2c9fac105533afe536	30	F	habit	2021-10-29T19:56:26.816826	1	1	20211025v3-longertrials	alien	121	Lc100Uc100Rf100	c	100	c	100	f	100	true	783	up	100	1	left	100	1	473599.367	474632.659	475415.961	475690.853	100	close	TRUE	devalue	first50	first20
be8b73f4ad09ef2c9fac105533afe536	30	F	habit	2021-10-29T19:56:26.816826	1	1	20211025v3-longertrials	alien	122	Lc100Uc100Rf100	c	100	c	100	f	100	true	733	right	100	2	up	100	1	475974.175	476990.801	477724.105	478657.401	100	far	FALSE	devalue	first100	first50
313c03e97878881e9714ea922300adcf	13	M	habit	2021-11-04T15:23:44.2677	1	1	20211025v3-longertrials	lizard	1	Lc20Uc50Rf100	c	20	c	50	f	100	false	67	up	50	1	left	20	1	66464.101	67464.241	67530.917	67780.952	50	close	TRUE	init	first50	first20
313c03e97878881e9714ea922300adcf	13	M	habit	2021-11-04T15:23:44.2677	1	1	20211025v3-longertrials	lizard	2	Lc20Uc50Rf100	c	20	c	50	f	100	true	1400	up	50	1	left	20	1	67997.649	68997.789	70397.985	70648.02	50	close	TRUE	init	first50	first20
313c03e97878881e9714ea922300adcf	13	M	habit	2021-11-04T15:23:44.2677	1	1	20211025v3-longertrials	lizard	3	Lc20Uc50Rf100	c	20	c	50	f	100	true	50	up	50	1	left	20	1	70864.717	71864.857	71914.864	72115.121	50	close	TRUE	init	first50	first20
313c03e97878881e9714ea922300adcf	13	M	habit	2021-11-04T15:23:44.2677	1	1	20211025v3-longertrials	lizard	4	Lc20Uc50Rf100	c	20	c	50	f	100	false	183	up	50	1	left	20	1	72298.48	73331.958	73515.317	73815.359	50	close	TRUE	init	first50	first20
313c03e97878881e9714ea922300adcf	13	M	habit	2021-11-04T15:23:44.2677	1	1	20211025v3-longertrials	lizard	5	Lc20Uc50Rf100	c	20	c	50	f	100	true	400	right	100	2	left	20	1	74098.732	75098.872	75498.928	76315.709	100	far	TRUE	init	first100	first20
313c03e97878881e9714ea922300adcf	13	M	habit	2021-11-04T15:23:44.2677	1	1	20211025v3-longertrials	lizard	6	Lc20Uc50Rf100	c	20	c	50	f	100	true	67	right	100	2	left	20	1	77182.497	78199.306	78265.982	79082.763	100	far	TRUE	init	first100	first20
313c03e97878881e9714ea922300adcf	13	M	habit	2021-11-04T15:23:44.2677	1	1	20211025v3-longertrials	lizard	7	Lc20Uc50Rf100	c	20	c	50	f	100	true	433	right	100	2	left	20	1	80016.227	81033.036	81466.43	82233.427	100	far	TRUE	init	first100	first20
313c03e97878881e9714ea922300adcf	13	M	habit	2021-11-04T15:23:44.2677	1	1	20211025v3-longertrials	lizard	8	Lc20Uc50Rf100	c	20	c	50	f	100	true	350	right	100	2	up	50	1	83116.884	84117.024	84467.073	85283.854	100	far	TRUE	init	first100	first50
313c03e97878881e9714ea922300adcf	13	M	habit	2021-11-04T15:23:44.2677	1	1	20211025v3-longertrials	lizard	9	Lc20Uc50Rf100	c	20	c	50	f	100	true	33	right	100	2	up	50	1	86117.304	87117.444	87150.782	87967.563	100	far	TRUE	init	first100	first50
313c03e97878881e9714ea922300adcf	13	M	habit	2021-11-04T15:23:44.2677	1	1	20211025v3-longertrials	lizard	10	Lc20Uc50Rf100	c	20	c	50	f	100	false	1334	left	20	1	up	50	1	88751.006	89784.484	91118.004	91368.039	20	close	FALSE	init	first20	first50
313c03e97878881e9714ea922300adcf	13	M	habit	2021-11-04T15:23:44.2677	1	1	20211025v3-longertrials	lizard	11	Lc20Uc50Rf100	c	20	c	50	f	100	true	533	right	100	2	up	50	1	91618.074	92651.552	93184.96	93901.965	100	far	TRUE	init	first100	first50
313c03e97878881e9714ea922300adcf	13	M	habit	2021-11-04T15:23:44.2677	1	1	20211025v3-longertrials	lizard	12	Lc20Uc50Rf100	c	20	c	50	f	100	true	150	right	100	2	left	20	1	94768.753	95768.893	95918.914	96669.019	100	far	TRUE	init	first100	first20
313c03e97878881e9714ea922300adcf	13	M	habit	2021-11-04T15:23:44.2677	1	1	20211025v3-longertrials	lizard	13	Lc20Uc50Rf100	c	20	c	50	f	100		NA		NA	NA		NA	NA	97485.8	98485.94	NA	NA	NA	NA	NA	init	NA	NA
313c03e97878881e9714ea922300adcf	13	M	habit	2021-11-04T15:23:44.2677	1	1	20211025v3-longertrials	lizard	14	Lc20Uc50Rf100	c	20	c	50	f	100	true	817	right	100	2	left	20	1	101519.698	102519.838	103336.619	104236.982	100	far	TRUE	init	first100	first20
313c03e97878881e9714ea922300adcf	13	M	habit	2021-11-04T15:23:44.2677	1	1	20211025v3-longertrials	lizard	15	Lc20Uc50Rf100	c	20	c	50	f	100	true	717	right	100	2	up	50	1	105103.77	106103.91	106820.677	107604.12	100	far	TRUE	init	first100	first50
313c03e97878881e9714ea922300adcf	13	M	habit	2021-11-04T15:23:44.2677	1	1	20211025v3-longertrials	lizard	16	Lc20Uc50Rf100	c	20	c	50	f	100	true	550	right	100	2	up	50	1	108437.57	109454.379	110004.456	110821.237	100	far	TRUE	init	first100	first50
313c03e97878881e9714ea922300adcf	13	M	habit	2021-11-04T15:23:44.2677	1	1	20211025v3-longertrials	lizard	17	Lc20Uc50Rf100	c	20	c	50	f	100	true	1867	up	50	1	left	20	1	111671.356	112704.834	114571.991	114872.033	50	close	TRUE	init	first50	first20
313c03e97878881e9714ea922300adcf	13	M	habit	2021-11-04T15:23:44.2677	1	1	20211025v3-longertrials	lizard	18	Lc20Uc50Rf100	c	20	c	50	f	100	false	1000	up	50	1	left	20	1	115138.737	116155.546	117155.686	117389.052	50	close	TRUE	init	first50	first20
313c03e97878881e9714ea922300adcf	13	M	habit	2021-11-04T15:23:44.2677	1	1	20211025v3-longertrials	lizard	19	Lc20Uc50Rf100	c	20	c	50	f	100	false	1534	left	20	1	up	50	1	117589.08	118622.558	120156.106	120406.141	20	close	FALSE	init	first20	first50
313c03e97878881e9714ea922300adcf	13	M	habit	2021-11-04T15:23:44.2677	1	1	20211025v3-longertrials	lizard	20	Lc20Uc50Rf100	c	20	c	50	f	100	true	517	right	100	2	left	20	1	120706.183	121722.992	122239.731	123039.843	100	far	TRUE	init	first100	first20
313c03e97878881e9714ea922300adcf	13	M	habit	2021-11-04T15:23:44.2677	1	1	20211025v3-longertrials	lizard	21	Lc20Uc50Rf100	c	20	c	50	f	100	false	700	left	20	1	up	50	1	123956.86	124990.338	125690.436	125923.802	20	close	FALSE	init	first20	first50
313c03e97878881e9714ea922300adcf	13	M	habit	2021-11-04T15:23:44.2677	1	1	20211025v3-longertrials	lizard	22	Lc20Uc50Rf100	c	20	c	50	f	100	true	750	right	100	2	up	50	1	126157.168	127190.646	127940.751	128790.87	100	far	TRUE	init	first100	first50
313c03e97878881e9714ea922300adcf	13	M	habit	2021-11-04T15:23:44.2677	1	1	20211025v3-longertrials	lizard	23	Lc20Uc50Rf100	c	20	c	50	f	100	true	1017	up	50	1	left	20	1	129741.003	130774.481	131791.29	132007.987	50	close	TRUE	init	first50	first20
313c03e97878881e9714ea922300adcf	13	M	habit	2021-11-04T15:23:44.2677	1	1	20211025v3-longertrials	lizard	24	Lc20Uc50Rf100	c	20	c	50	f	100	true	933	right	100	2	up	50	1	132258.022	133291.5	134224.964	134941.966	100	far	TRUE	init	first100	first50
313c03e97878881e9714ea922300adcf	13	M	habit	2021-11-04T15:23:44.2677	1	1	20211025v3-longertrials	lizard	25	Lc20Uc50Rf100	c	20	c	50	f	100	true	950	right	100	2	up	50	1	135742.078	136742.218	137692.351	138525.801	100	far	TRUE	init	first100	first50
313c03e97878881e9714ea922300adcf	13	M	habit	2021-11-04T15:23:44.2677	1	1	20211025v3-longertrials	lizard	26	Lc20Uc50Rf100	c	20	c	50	f	100	false	1217	left	20	1	right	100	2	139342.582	140342.722	141559.559	141742.918	20	close	FALSE	init	first20	first100
313c03e97878881e9714ea922300adcf	13	M	habit	2021-11-04T15:23:44.2677	1	1	20211025v3-longertrials	lizard	27	Lc20Uc50Rf100	c	20	c	50	f	100	true	1000	right	100	2	up	50	1	141976.284	142976.424	143976.564	144726.892	100	far	TRUE	init	first100	first50
313c03e97878881e9714ea922300adcf	13	M	habit	2021-11-04T15:23:44.2677	1	1	20211025v3-longertrials	lizard	28	Lc20Uc50Rf100	c	20	c	50	f	100	true	850	right	100	2	up	50	1	145643.687	146677.165	147527.284	148294.058	100	far	TRUE	init	first100	first50
313c03e97878881e9714ea922300adcf	13	M	habit	2021-11-04T15:23:44.2677	1	1	20211025v3-longertrials	lizard	29	Lc20Uc50Rf100	c	20	c	50	f	100	true	833	right	100	2	left	20	1	149094.17	150127.648	150961.098	151861.224	100	far	TRUE	init	first100	first20
313c03e97878881e9714ea922300adcf	13	M	habit	2021-11-04T15:23:44.2677	1	1	20211025v3-longertrials	lizard	30	Lc20Uc50Rf100	c	20	c	50	f	100	false	1617	up	50	1	left	20	1	152711.343	153711.483	155328.607	155545.304	50	close	TRUE	init	first50	first20
313c03e97878881e9714ea922300adcf	13	M	habit	2021-11-04T15:23:44.2677	1	1	20211025v3-longertrials	lizard	31	Lc20Uc50Rf100	c	20	c	50	f	100	true	1083	right	100	2	up	50	1	155812.008	156845.486	157928.971	158679.076	100	far	TRUE	init	first100	first50
313c03e97878881e9714ea922300adcf	13	M	habit	2021-11-04T15:23:44.2677	1	1	20211025v3-longertrials	lizard	32	Lc20Uc50Rf100	c	20	c	50	f	100	true	783	right	100	2	up	50	1	159595.871	160596.011	161379.454	162129.559	100	far	TRUE	init	first100	first50
313c03e97878881e9714ea922300adcf	13	M	habit	2021-11-04T15:23:44.2677	1	1	20211025v3-longertrials	lizard	33	Lc20Uc50Rf100	c	20	c	50	f	100	true	583	right	100	2	up	50	1	163096.361	164113.17	164696.585	165513.59	100	far	TRUE	init	first100	first50
313c03e97878881e9714ea922300adcf	13	M	habit	2021-11-04T15:23:44.2677	1	1	20211025v3-longertrials	lizard	34	Lc20Uc50Rf100	c	20	c	50	f	100	false	1150	up	50	1	left	20	1	166297.033	167297.173	168447.334	168664.031	50	close	TRUE	init	first50	first20
313c03e97878881e9714ea922300adcf	13	M	habit	2021-11-04T15:23:44.2677	1	1	20211025v3-longertrials	lizard	35	Lc20Uc50Rf100	c	20	c	50	f	100	true	983	right	100	2	left	20	1	168880.728	169897.537	170881.008	171581.106	100	far	TRUE	init	first100	first20
313c03e97878881e9714ea922300adcf	13	M	habit	2021-11-04T15:23:44.2677	1	1	20211025v3-longertrials	lizard	36	Lc20Uc50Rf100	c	20	c	50	f	100		NA		NA	NA		NA	NA	172347.88	173381.358	NA	NA	NA	NA	NA	init	NA	NA
313c03e97878881e9714ea922300adcf	13	M	habit	2021-11-04T15:23:44.2677	1	1	20211025v3-longertrials	lizard	37	Lc20Uc50Rf100	c	20	c	50	f	100		NA		NA	NA		NA	NA	176382	177415.478	NA	NA	NA	NA	NA	init	NA	NA
313c03e97878881e9714ea922300adcf	13	M	habit	2021-11-04T15:23:44.2677	1	1	20211025v3-longertrials	lizard	38	Lc20Uc50Rf100	c	20	c	50	f	100	true	600	right	100	2	left	20	1	180415.898	181432.707	182032.791	182816.234	100	far	TRUE	init	first100	first20
313c03e97878881e9714ea922300adcf	13	M	habit	2021-11-04T15:23:44.2677	1	1	20211025v3-longertrials	lizard	39	Lc20Uc50Rf100	c	20	c	50	f	100	true	567	right	100	2	left	20	1	183649.684	184666.493	185233.239	186100.26	100	far	TRUE	init	first100	first20
313c03e97878881e9714ea922300adcf	13	M	habit	2021-11-04T15:23:44.2677	1	1	20211025v3-longertrials	lizard	40	Lc20Uc50Rf100	c	20	c	50	f	100	true	333	right	100	2	left	20	1	187000.386	188000.526	188333.906	189134.018	100	far	TRUE	init	first100	first20
313c03e97878881e9714ea922300adcf	13	M	habit	2021-11-04T15:23:44.2677	1	1	20211025v3-longertrials	lizard	41	Lc20Uc50Rf100	c	20	c	50	f	100	true	350	right	100	2	left	20	1	190017.475	191050.953	191401.002	192134.438	100	far	TRUE	init	first100	first20
313c03e97878881e9714ea922300adcf	13	M	habit	2021-11-04T15:23:44.2677	1	1	20211025v3-longertrials	lizard	42	Lc20Uc50Rf100	c	20	c	50	f	100	true	1250	up	50	1	left	20	1	193001.226	194001.366	195251.541	195501.798	50	close	TRUE	init	first50	first20
313c03e97878881e9714ea922300adcf	13	M	habit	2021-11-04T15:23:44.2677	1	1	20211025v3-longertrials	lizard	43	Lc20Uc50Rf100	c	20	c	50	f	100	true	533	right	100	2	up	50	1	195801.84	196818.649	197352.057	198168.838	100	far	TRUE	init	first100	first50
313c03e97878881e9714ea922300adcf	13	M	habit	2021-11-04T15:23:44.2677	1	1	20211025v3-longertrials	lizard	44	Lc20Uc50Rf100	c	20	c	50	f	100	true	533	right	100	2	up	50	1	199052.295	200085.773	200619.181	201369.286	100	far	TRUE	init	first100	first50
313c03e97878881e9714ea922300adcf	13	M	habit	2021-11-04T15:23:44.2677	1	1	20211025v3-longertrials	lizard	45	Lc20Uc50Rf100	c	20	c	50	f	100	true	1367	left	20	1	right	100	2	202269.412	203302.89	204669.748	204919.783	20	close	FALSE	init	first20	first100
313c03e97878881e9714ea922300adcf	13	M	habit	2021-11-04T15:23:44.2677	1	1	20211025v3-longertrials	lizard	46	Lc20Uc50Rf100	c	20	c	50	f	100	false	1200	up	50	1	left	20	1	205169.818	206170.181	207370.349	207653.722	50	close	TRUE	init	first50	first20
313c03e97878881e9714ea922300adcf	13	M	habit	2021-11-04T15:23:44.2677	1	1	20211025v3-longertrials	lizard	47	Lc20Uc50Rf100	c	20	c	50	f	100	true	683	right	100	2	up	50	1	207903.757	208937.235	209620.664	210520.79	100	far	TRUE	init	first100	first50
313c03e97878881e9714ea922300adcf	13	M	habit	2021-11-04T15:23:44.2677	1	1	20211025v3-longertrials	lizard	48	Lc20Uc50Rf100	c	20	c	50	f	100	true	750	right	100	2	left	20	1	211337.571	212337.711	213087.816	213871.259	100	far	TRUE	init	first100	first20
313c03e97878881e9714ea922300adcf	13	M	habit	2021-11-04T15:23:44.2677	1	1	20211025v3-longertrials	lizard	49	Lc20Uc50Rf100	c	20	c	50	f	100	true	600	right	100	2	up	20	1	214721.378	215754.856	216354.94	217138.615	100	far	TRUE	init	first100	first50
313c03e97878881e9714ea922300adcf	13	M	habit	2021-11-04T15:23:44.2677	1	1	20211025v3-longertrials	lizard	50	Lc50Uc20Rf100	c	50	c	20	f	100	true	433	right	100	2	left	50	1	217972.065	218972.205	219405.599	220122.366	100	far	TRUE	switch	first100	first20
313c03e97878881e9714ea922300adcf	13	M	habit	2021-11-04T15:23:44.2677	1	1	20211025v3-longertrials	lizard	51	Lc50Uc20Rf100	c	50	c	20	f	100	false	1267	up	20	1	left	50	1	221005.823	222022.632	223289.476	223556.18	20	close	FALSE	switch	first50	first20
313c03e97878881e9714ea922300adcf	13	M	habit	2021-11-04T15:23:44.2677	1	1	20211025v3-longertrials	lizard	52	Lc50Uc20Rf100	c	50	c	20	f	100		NA		NA	NA		NA	NA	223806.215	224823.024	NA	NA	NA	NA	NA	switch	NA	NA
313c03e97878881e9714ea922300adcf	13	M	habit	2021-11-04T15:23:44.2677	1	1	20211025v3-longertrials	lizard	53	Lc50Uc20Rf100	c	50	c	20	f	100	false	983	up	20	1	left	50	1	227823.68	228823.82	229807.291	230023.988	20	close	FALSE	switch	first50	first20
313c03e97878881e9714ea922300adcf	13	M	habit	2021-11-04T15:23:44.2677	1	1	20211025v3-longertrials	lizard	54	Lc50Uc20Rf100	c	50	c	20	f	100	true	833	right	100	2	left	50	1	230257.354	231274.163	232107.613	232957.732	100	far	TRUE	switch	first100	first20
313c03e97878881e9714ea922300adcf	13	M	habit	2021-11-04T15:23:44.2677	1	1	20211025v3-longertrials	lizard	55	Lc50Uc20Rf100	c	50	c	20	f	100	true	1267	left	50	1	up	20	1	233791.182	234791.322	236058.166	236241.525	50	close	TRUE	switch	first20	first50
313c03e97878881e9714ea922300adcf	13	M	habit	2021-11-04T15:23:44.2677	1	1	20211025v3-longertrials	lizard	56	Lc50Uc20Rf100	c	50	c	20	f	100	true	733	right	100	2	up	20	1	236558.458	237575.267	238308.703	239158.822	100	far	TRUE	switch	first100	first50
313c03e97878881e9714ea922300adcf	13	M	habit	2021-11-04T15:23:44.2677	1	1	20211025v3-longertrials	lizard	57	Lc50Uc20Rf100	c	50	c	20	f	100	true	533	right	100	2	left	50	1	240008.941	241025.75	241559.158	242409.277	100	far	TRUE	switch	first100	first20
313c03e97878881e9714ea922300adcf	13	M	habit	2021-11-04T15:23:44.2677	1	1	20211025v3-longertrials	lizard	58	Lc50Uc20Rf100	c	50	c	20	f	100	true	567	right	100	2	left	50	1	243292.734	244326.212	244892.958	245743.077	100	far	TRUE	switch	first100	first20
313c03e97878881e9714ea922300adcf	13	M	habit	2021-11-04T15:23:44.2677	1	1	20211025v3-longertrials	lizard	59	Lc50Uc20Rf100	c	50	c	20	f	100	true	333	right	100	2	up	20	1	246726.772	247743.581	248076.961	248810.397	100	far	TRUE	switch	first100	first50
313c03e97878881e9714ea922300adcf	13	M	habit	2021-11-04T15:23:44.2677	1	1	20211025v3-longertrials	lizard	60	Lc50Uc20Rf100	c	50	c	20	f	100	true	350	right	100	2	left	50	1	249793.868	250810.677	251160.726	251910.831	100	far	TRUE	switch	first100	first20
313c03e97878881e9714ea922300adcf	13	M	habit	2021-11-04T15:23:44.2677	1	1	20211025v3-longertrials	lizard	61	Lc50Uc20Rf100	c	50	c	20	f	100	true	667	right	100	2	left	50	1	252777.619	253811.097	254477.857	255327.976	100	far	TRUE	switch	first100	first20
313c03e97878881e9714ea922300adcf	13	M	habit	2021-11-04T15:23:44.2677	1	1	20211025v3-longertrials	lizard	62	Lc50Uc20Rf100	c	50	c	20	f	100	false	1067	up	20	1	left	50	1	256194.764	257194.904	258261.958	258461.986	20	close	FALSE	switch	first50	first20
313c03e97878881e9714ea922300adcf	13	M	habit	2021-11-04T15:23:44.2677	1	1	20211025v3-longertrials	lizard	63	Lc50Uc20Rf100	c	50	c	20	f	100	true	1534	right	100	2	left	50	1	258695.352	259712.161	261245.709	261962.476	100	far	TRUE	switch	first100	first20
313c03e97878881e9714ea922300adcf	13	M	habit	2021-11-04T15:23:44.2677	1	1	20211025v3-longertrials	lizard	64	Lc50Uc20Rf100	c	50	c	20	f	100	false	1117	left	50	1	up	20	1	262829.264	263846.073	264962.896	265179.593	50	close	TRUE	switch	first20	first50
313c03e97878881e9714ea922300adcf	13	M	habit	2021-11-04T15:23:44.2677	1	1	20211025v3-longertrials	lizard	65	Lc50Uc20Rf100	c	50	c	20	f	100		NA		NA	NA		NA	NA	265446.297	266479.775	NA	NA	NA	NA	NA	switch	NA	NA
313c03e97878881e9714ea922300adcf	13	M	habit	2021-11-04T15:23:44.2677	1	1	20211025v3-longertrials	lizard	66	Lc50Uc20Rf100	c	50	c	20	f	100	true	1183	right	100	2	left	50	1	269497.103	270497.243	271680.742	272430.847	100	far	TRUE	switch	first100	first20
313c03e97878881e9714ea922300adcf	13	M	habit	2021-11-04T15:23:44.2677	1	1	20211025v3-longertrials	lizard	67	Lc50Uc20Rf100	c	50	c	20	f	100	true	450	right	100	2	left	50	1	273264.297	274264.437	274714.5	275447.936	100	far	TRUE	switch	first100	first20
313c03e97878881e9714ea922300adcf	13	M	habit	2021-11-04T15:23:44.2677	1	1	20211025v3-longertrials	lizard	68	Lc50Uc20Rf100	c	50	c	20	f	100	false	967	up	20	1	left	50	1	276364.731	277381.54	278348.569	278565.266	20	close	FALSE	switch	first50	first20
313c03e97878881e9714ea922300adcf	13	M	habit	2021-11-04T15:23:44.2677	1	1	20211025v3-longertrials	lizard	69	Lc50Uc20Rf100	c	50	c	20	f	100	false	1567	left	50	1	up	20	1	278831.97	279865.448	281432.334	281665.7	50	close	TRUE	switch	first20	first50
313c03e97878881e9714ea922300adcf	13	M	habit	2021-11-04T15:23:44.2677	1	1	20211025v3-longertrials	lizard	70	Lc50Uc20Rf100	c	50	c	20	f	100	true	683	right	100	2	up	20	1	281915.735	282932.544	283615.973	284416.085	100	far	TRUE	switch	first100	first50
313c03e97878881e9714ea922300adcf	13	M	habit	2021-11-04T15:23:44.2677	1	1	20211025v3-longertrials	lizard	71	Lc50Uc20Rf100	c	50	c	20	f	100	true	600	right	100	2	up	20	1	285316.211	286349.689	286949.773	287783.223	100	far	TRUE	switch	first100	first50
313c03e97878881e9714ea922300adcf	13	M	habit	2021-11-04T15:23:44.2677	1	1	20211025v3-longertrials	lizard	72	Lc50Uc20Rf100	c	50	c	20	f	100	true	550	right	100	2	up	20	1	288700.241	289733.719	290283.796	291033.901	100	far	TRUE	switch	first100	first50
313c03e97878881e9714ea922300adcf	13	M	habit	2021-11-04T15:23:44.2677	1	1	20211025v3-longertrials	lizard	73	Lc50Uc20Rf100	c	50	c	20	f	100	false	1000	up	20	1	left	50	1	291800.675	292834.153	293834.293	294050.99	20	close	FALSE	switch	first50	first20
313c03e97878881e9714ea922300adcf	13	M	habit	2021-11-04T15:23:44.2677	1	1	20211025v3-longertrials	lizard	74	Lc50Uc20Rf100	c	50	c	20	f	100	true	1217	right	100	2	up	20	1	294267.687	295284.496	296501.333	297251.438	100	far	TRUE	switch	first100	first50
313c03e97878881e9714ea922300adcf	13	M	habit	2021-11-04T15:23:44.2677	1	1	20211025v3-longertrials	lizard	75	Lc50Uc20Rf100	c	50	c	20	f	100	true	650	right	100	2	left	50	1	298034.881	299068.359	299718.45	300485.464	100	far	TRUE	switch	first100	first20
313c03e97878881e9714ea922300adcf	13	M	habit	2021-11-04T15:23:44.2677	1	1	20211025v3-longertrials	lizard	76	Lc50Uc20Rf100	c	50	c	20	f	100	true	683	right	100	2	left	50	1	301302.245	302319.054	303002.483	303769.257	100	far	TRUE	switch	first100	first20
313c03e97878881e9714ea922300adcf	13	M	habit	2021-11-04T15:23:44.2677	1	1	20211025v3-longertrials	lizard	77	Lc50Uc20Rf100	c	50	c	20	f	100	true	400	right	100	2	up	20	1	304719.39	305719.53	306119.586	306919.698	100	far	TRUE	switch	first100	first50
313c03e97878881e9714ea922300adcf	13	M	habit	2021-11-04T15:23:44.2677	1	1	20211025v3-longertrials	lizard	78	Lc50Uc20Rf100	c	50	c	20	f	100	true	650	right	100	2	left	50	1	307886.5	308903.309	309553.4	310270.4	100	far	TRUE	switch	first100	first20
313c03e97878881e9714ea922300adcf	13	M	habit	2021-11-04T15:23:44.2677	1	1	20211025v3-longertrials	lizard	79	Lc50Uc20Rf100	c	50	c	20	f	100	true	567	right	100	2	left	50	1	311137.188	312153.997	312720.743	313687.545	100	far	TRUE	switch	first100	first20
313c03e97878881e9714ea922300adcf	13	M	habit	2021-11-04T15:23:44.2677	1	1	20211025v3-longertrials	lizard	80	Lc50Uc20Rf100	c	50	c	20	f	100	true	450	right	100	2	left	50	1	314604.34	315621.149	316071.212	317054.683	100	far	TRUE	switch	first100	first20
313c03e97878881e9714ea922300adcf	13	M	habit	2021-11-04T15:23:44.2677	1	1	20211025v3-longertrials	lizard	81	Lc50Uc20Rf100	c	50	c	20	f	100	true	450	right	100	2	up	20	1	317988.147	318988.287	319438.35	320322.03	100	far	TRUE	switch	first100	first50
313c03e97878881e9714ea922300adcf	13	M	habit	2021-11-04T15:23:44.2677	1	1	20211025v3-longertrials	lizard	82	Lc50Uc20Rf100	c	50	c	20	f	100		NA		NA	NA		NA	NA	321155.48	322188.958	NA	NA	NA	NA	NA	switch	NA	NA
313c03e97878881e9714ea922300adcf	13	M	habit	2021-11-04T15:23:44.2677	1	1	20211025v3-longertrials	lizard	83	Lc50Uc20Rf100	c	50	c	20	f	100	true	650	right	100	2	up	20	1	325206.047	326239.525	326889.616	327623.052	100	far	TRUE	switch	first100	first50
313c03e97878881e9714ea922300adcf	13	M	habit	2021-11-04T15:23:44.2677	1	1	20211025v3-longertrials	lizard	84	Lc50Uc20Rf100	c	50	c	20	f	100	true	350	right	100	2	left	50	1	328506.509	329506.649	329856.698	330707.044	100	far	TRUE	switch	first100	first20
313c03e97878881e9714ea922300adcf	13	M	habit	2021-11-04T15:23:44.2677	1	1	20211025v3-longertrials	lizard	85	Lc50Uc20Rf100	c	50	c	20	f	100	true	517	right	100	2	up	20	1	331557.163	332557.303	333074.042	333940.83	100	far	TRUE	switch	first100	first50
313c03e97878881e9714ea922300adcf	13	M	habit	2021-11-04T15:23:44.2677	1	1	20211025v3-longertrials	lizard	86	Lc50Uc20Rf100	c	50	c	20	f	100	true	617	right	100	2	left	50	1	334824.287	335841.096	336457.849	337241.292	100	far	TRUE	switch	first100	first20
313c03e97878881e9714ea922300adcf	13	M	habit	2021-11-04T15:23:44.2677	1	1	20211025v3-longertrials	lizard	87	Lc50Uc20Rf100	c	50	c	20	f	100	false	1717	up	20	1	left	50	1	338141.418	339158.227	340875.36	341175.402	20	close	FALSE	switch	first50	first20
313c03e97878881e9714ea922300adcf	13	M	habit	2021-11-04T15:23:44.2677	1	1	20211025v3-longertrials	lizard	88	Lc50Uc20Rf100	c	50	c	20	f	100		NA		NA	NA		NA	NA	341408.768	342408.908	NA	NA	NA	NA	NA	switch	NA	NA
313c03e97878881e9714ea922300adcf	13	M	habit	2021-11-04T15:23:44.2677	1	1	20211025v3-longertrials	lizard	89	Lc50Uc20Rf100	c	50	c	20	f	100	true	1517	left	50	1	up	20	1	345442.666	346476.144	347993.023	348193.051	50	close	TRUE	switch	first20	first50
