{"events":[{"chose-time":744041.1,"iti-orig":1000,"iti-time":743037.6,"avoided-step":1,"iti-ideal-end":1000,"waiting-time":744927.5,"avoided":"left","left-step":1,"up-prob":50,"score":true,"rt":886.4000000000233,"feedback-time":745078,"trial":1,"left-open":false,"right-open":false,"iti-dur":1000,"all-keys":[{"key":39,"time":1722548172122}],"right-step":2,"up-step":1,"picked-prob":100,"picked-step":2,"avoided-prob":20,"picked":"right","left-prob":20,"right-prob":100,"blockstr":"Lc20Uc50Rf100","up-open":false,"trial-choices":"left-right"},{"chose-time":746299,"iti-orig":1000,"iti-time":745278.7,"avoided-step":1,"iti-ideal-end":3000,"waiting-time":747319.1,"avoided":"up","left-step":1,"up-prob":50,"score":false,"rt":1020.0999999999767,"feedback-time":747469.7,"trial":2,"left-open":false,"right-open":false,"iti-dur":1000,"all-keys":[{"key":39,"time":1722548173561},{"key":39,"time":1722548173897},{"key":39,"time":1722548174329},{"key":37,"time":1722548174490}],"right-step":2,"up-step":1,"picked-prob":20,"picked-step":1,"avoided-prob":50,"picked":"left","left-prob":20,"right-prob":100,"blockstr":"Lc20Uc50Rf100","up-open":false,"trial-choices":"left-up"},{"chose-time":748690.6,"iti-orig":1000,"iti-time":747653.7,"avoided-step":1,"iti-ideal-end":5000,"waiting-time":749393.1,"avoided":"up","left-step":1,"up-prob":50,"score":true,"rt":702.5,"feedback-time":749560.4,"trial":3,"left-open":false,"right-open":false,"iti-dur":1000,"all-keys":[{"key":39,"time":1722548176602}],"right-step":2,"up-step":1,"picked-prob":100,"picked-step":2,"avoided-prob":50,"picked":"right","left-prob":20,"right-prob":100,"blockstr":"Lc20Uc50Rf100","up-open":false,"trial-choices":"up-right"},{"chose-time":750747.8,"iti-orig":1000,"iti-time":749744.3,"avoided-step":1,"iti-ideal-end":7000,"waiting-time":751650.9,"avoided":"up","left-step":1,"up-prob":50,"score":true,"rt":903.0999999999767,"feedback-time":751868.4,"trial":4,"left-open":false,"right-open":false,"iti-dur":1000,"all-keys":[{"key":37,"time":1722548178859}],"right-step":2,"up-step":1,"picked-prob":50,"picked-step":1,"avoided-prob":20,"picked":"left","left-prob":20,"right-prob":100,"blockstr":"Lc20Uc50Rf100","up-open":false,"trial-choices":"left-up"},{"chose-time":753072.5,"iti-orig":1000,"iti-time":752052.3,"avoided-step":1,"iti-ideal-end":9000,"waiting-time":753540.8,"avoided":"left","left-step":1,"up-prob":20,"score":true,"rt":468.30000000004657,"feedback-time":753724.8,"trial":5,"left-open":false,"right-open":false,"iti-dur":1000,"all-keys":[{"key":39,"time":1722548180745}],"right-step":2,"up-step":1,"picked-prob":100,"picked-step":2,"avoided-prob":50,"picked":"right","left-prob":50,"right-prob":100,"blockstr":"Lc50Uc20Rf100","up-open":false,"trial-choices":"left-right"},{"chose-time":754945.8,"iti-orig":1000,"iti-time":753942.3,"avoided-step":1,"iti-ideal-end":11000,"waiting-time":755514.4,"avoided":"up","left-step":1,"up-prob":20,"score":true,"rt":568.5999999999767,"feedback-time":755715.1,"trial":6,"left-open":false,"right-open":false,"iti-dur":1000,"all-keys":[{"key":37,"time":1722548182554},{"key":39,"time":1722548182729}],"right-step":2,"up-step":1,"picked-prob":100,"picked-step":2,"avoided-prob":20,"picked":"right","left-prob":50,"right-prob":100,"blockstr":"Lc50Uc20Rf100","up-open":false,"trial-choices":"up-right"},{"chose-time":756952.532,"iti-orig":1000,"iti-time":755932.5,"avoided-step":1,"iti-ideal-end":13000,"waiting-time":757003,"avoided":"up","left-step":1,"up-prob":20,"score":true,"rt":50.46799999999348,"feedback-time":757187,"trial":7,"left-open":false,"right-open":false,"iti-dur":1000,"all-keys":[{"key":39,"time":1722548184201},{"key":39,"time":1722548184362}],"right-step":2,"up-step":1,"picked-prob":100,"picked-step":2,"avoided-prob":100,"picked":"right","left-prob":50,"right-prob":100,"blockstr":"Lc50Uc20Rf100","up-open":false,"trial-choices":"up-right"},{"chose-time":758391.1,"iti-orig":1000,"iti-time":757370.9,"avoided-step":1,"iti-ideal-end":15000,"waiting-time":759026.7,"avoided":"up","left-step":1,"up-prob":100,"score":true,"rt":635.5999999999767,"feedback-time":759210.6,"trial":8,"left-open":false,"right-open":false,"iti-dur":1000,"all-keys":[{"key":39,"time":1722548185721},{"key":39,"time":1722548185883},{"key":37,"time":1722548186219}],"right-step":2,"up-step":1,"picked-prob":100,"picked-step":1,"avoided-prob":100,"picked":"left","left-prob":100,"right-prob":100,"blockstr":"Lc100Uc100Rf100","up-open":false,"trial-choices":"left-up"},{"chose-time":760448.098,"iti-orig":1000,"iti-time":759411.3,"avoided-step":2,"iti-ideal-end":17000,"waiting-time":760749.266,"avoided":"right","left-step":1,"up-prob":100,"score":true,"rt":301.1679999999469,"feedback-time":760933.2,"trial":9,"left-open":false,"right-open":false,"iti-dur":1000,"all-keys":[{"key":37,"time":1722548187946}],"right-step":2,"up-step":1,"picked-prob":100,"picked-step":1,"avoided-prob":100,"picked":"left","left-prob":100,"right-prob":100,"blockstr":"Lc100Uc100Rf100","up-open":false,"trial-choices":"left-right"},{"chose-time":762154.1,"iti-orig":1000,"iti-time":761117.3,"avoided-step":1,"iti-ideal-end":19000,"waiting-time":762856.7,"avoided":"up","left-step":1,"up-prob":100,"score":true,"rt":702.5999999999767,"feedback-time":763040.6,"trial":10,"left-open":false,"right-open":false,"iti-dur":1000,"all-keys":[{"key":39,"time":1722548190058}],"right-step":2,"up-step":1,"picked-prob":100,"picked-step":2,"avoided-prob":100,"picked":"right","left-prob":100,"right-prob":100,"blockstr":"Lc100Uc100Rf100","up-open":false,"trial-choices":"up-right"},{"chose-time":764261.5,"iti-orig":1000,"iti-time":763241.3,"avoided-step":2,"iti-ideal-end":21000,"waiting-time":764779.9,"avoided":"right","left-step":1,"up-prob":100,"score":true,"rt":518.4000000000233,"feedback-time":764930.6,"trial":11,"left-open":false,"right-open":false,"iti-dur":1000,"all-keys":[{"key":37,"time":1722548191962}],"right-step":2,"up-step":1,"picked-prob":100,"picked-step":1,"avoided-prob":100,"picked":"left","left-prob":100,"right-prob":100,"blockstr":"Lc100Uc100Rf100","up-open":false,"trial-choices":"left-right"},{"chose-time":766151.5,"iti-orig":1000,"iti-time":765131.2,"avoided-step":1,"iti-ideal-end":23000,"waiting-time":766235,"avoided":"up","left-step":1,"up-prob":100,"score":true,"rt":83.5,"feedback-time":766419.1,"trial":12,"left-open":false,"right-open":false,"iti-dur":1000,"all-keys":[{"key":37,"time":1722548193433}],"right-step":2,"up-step":1,"picked-prob":100,"picked-step":1,"avoided-prob":100,"picked":"left","left-prob":100,"right-prob":100,"blockstr":"Lc100Uc100Rf100","up-open":false,"trial-choices":"left-up"},{"chose-time":767623.2,"iti-orig":1000,"iti-time":766619.7,"avoided-step":1,"iti-ideal-end":25000,"avoided":"up","left-step":1,"up-prob":100,"timeout-time":769630.2,"rt":null,"trial":13,"left-open":false,"right-open":false,"iti-dur":1000,"right-step":2,"up-step":1,"picked-prob":null,"picked-step":null,"avoided-prob":75,"picked":null,"left-prob":100,"right-prob":100,"blockstr":"Lc100Uc100Rf100","up-open":false,"trial-choices":"up-right"},{"chose-time":771118.7,"iti-orig":1000,"iti-time":770081.8,"avoided-step":1,"iti-ideal-end":27000,"avoided":"left","left-step":1,"up-prob":75,"timeout-time":773125.7,"rt":null,"trial":14,"left-open":false,"right-open":false,"iti-dur":1000,"right-step":2,"up-step":1,"picked-prob":null,"picked-step":null,"avoided-prob":75,"picked":null,"left-prob":75,"right-prob":75,"blockstr":"Lc75Uc75Rf75","up-open":false,"trial-choices":"left-up"},{"chose-time":774597.6,"iti-orig":1000,"iti-time":773594,"avoided-step":2,"iti-ideal-end":29000,"waiting-time":774831.6,"avoided":"right","left-step":1,"up-prob":75,"score":true,"rt":234,"feedback-time":774982.2,"trial":15,"left-open":false,"right-open":false,"iti-dur":1000,"all-keys":[{"key":37,"time":1722548202009}],"right-step":2,"up-step":1,"picked-prob":75,"picked-step":1,"avoided-prob":75,"picked":"left","left-prob":75,"right-prob":75,"blockstr":"Lc75Uc75Rf75","up-open":false,"trial-choices":"left-right"},{"chose-time":776169.6,"iti-orig":1000,"iti-time":775166.1,"avoided-step":1,"iti-ideal-end":31000,"waiting-time":776822,"avoided":"up","left-step":1,"up-prob":75,"score":true,"rt":652.4000000000233,"feedback-time":777039.3,"trial":16,"left-open":false,"right-open":false,"iti-dur":1000,"all-keys":[{"key":39,"time":1722548204026}],"right-step":2,"up-step":1,"picked-prob":75,"picked-step":2,"avoided-prob":75,"picked":"right","left-prob":75,"right-prob":75,"blockstr":"Lc75Uc75Rf75","up-open":false,"trial-choices":"up-right"},{"chose-time":778293.8,"iti-orig":1000,"iti-time":777256.8,"avoided-step":2,"iti-ideal-end":33000,"waiting-time":778829,"avoided":"right","left-step":1,"up-prob":75,"score":true,"rt":535.1999999999534,"feedback-time":778979.5,"trial":17,"left-open":false,"right-open":false,"iti-dur":1000,"all-keys":[{"key":37,"time":1722548206010}],"right-step":2,"up-step":1,"picked-prob":75,"picked-step":1,"avoided-prob":75,"picked":"left","left-prob":75,"right-prob":75,"blockstr":"Lc75Uc75Rf75","up-open":false,"trial-choices":"left-right"},{"chose-time":780200.4,"iti-orig":1000,"iti-time":779196.9,"avoided-step":1,"iti-ideal-end":35000,"waiting-time":780702.1,"avoided":"up","left-step":1,"up-prob":75,"score":false,"rt":501.69999999995343,"feedback-time":780869.4,"trial":18,"left-open":false,"right-open":false,"iti-dur":1000,"all-keys":[{"key":37,"time":1722548207898}],"right-step":2,"up-step":1,"picked-prob":75,"picked-step":1,"avoided-prob":75,"picked":"left","left-prob":75,"right-prob":75,"blockstr":"Lc75Uc75Rf75","up-open":false,"trial-choices":"left-up"},{"iti-time":781053.3,"trial":19,"iti-orig":1000,"iti-ideal-end":null,"done-time":782056.8}],"url":{"protocol":"https","username":null,"password":null,"host":"labneurocogdevel.github.io","port":-1,"path":"/choice-landscape/out/index.html","query":null,"anchor":"landscape=desert&timing=random&lang=es&nocaptcha&fewtrials&nofar&where=eeg"},"avatar":"alien","start-time":{"animation":743037.6,"browser":1722548170258},"survey":[],"mturk":{"code":"WXYZ1"},"settings":{"timing-method":"random","pile-y":null,"where":"eeg","local-ttl-server":null,"enforce-timeout":true,"post-back-url":false,"iti+end":0,"wait-time":500,"avatar-home":{"x":250,"y":400},"reversal-block":true,"step-wise":false,"bar-pos":{"x":50,"y":500},"times":{"choice-timeout":2000,"walk-dur":420,"timeout-dur":420,"iti-dur":1000},"avatar-step-size":10,"debug":false,"use-photodiode?":false,"top-scale":0.66,"center-x":250,"lang":"es","show-instructions":true,"pd-type":"whiteflash","bottom-y":400,"prob":{"low":20,"mid":50,"high":100,"devalue-good":{"good":75,"other":75}},"path-info":{"run":"index.html","timepoint":"out","task":"choice-landscape","id":""},"nTrials":{"pairsInBlock":1,"devalue":0,"devalue-good":1},"keycodes":{"left":37,"up":38,"right":39,"down":40},"step-sizes":[70,0],"vis-type":"desert","skip-captcha":true},"end-time":{"animation":782056.8,"browser":1722548209276}}